Time,Altitude,Altitude_BMP390,Temperature_BMP390,Acceleration_X_BNO085,Acceleration_Y_BNO085,Acceleration_Z_BNO085,Magnetic_X_BNO085,Magnetic_Y_BNO085,Magnetic_Z_BNO085,Gyro_X_BNO085,Gyro_Y_BNO085,Gyro_Z_BNO085,Quaternion_W_BNO085,Quaternion_X_BNO085,Quaternion_Y_BNO085,Quaternion_Z_BNO085,Acceleration_X_ICM20649,Acceleration_Y_ICM20649,Acceleration_Z_ICM20649,Gyro_X_ICM20649,Gyro_Y_ICM20649,Gyro_Z_ICM20649
841.2265646,39.91384127,149.6761259,8.117016617,0.3125,1.3125,10.37109375,16.4375,24.875,-33.375,0,0,0.001953125,0.0615234375,0.001708984375,0.2739868164,0.959777832,-0.9385270508,-0.8331821777,11.05163486,0.03464012351,0.008526799634,0.02051761162
841.2598979,38.24347285,148.4883134,8.126172253,0.3125,1.23828125,10.33203125,16.4375,24.875,-33.375,0,0,0.001953125,0.06146240234,0.001708984375,0.2741088867,0.9597167969,0.5458779785,-1.31202251,9.873687646,0.02824502379,0.01092496203,-0.003996937328
841.2932312,38.15439194,148.7539718,8.135327876,0.3125,1.19921875,10.3671875,16.8125,24.4375,-31.625,0,0.001953125,0.01171875,0.06146240234,0.001708984375,0.2741088867,0.9597167969,0.5267243652,-1.656787549,9.83538042,0.04130168573,0.01572128682,0.02504747392
841.3265646,38.52373441,148.9493728,8.126172253,0.3515625,1.3125,10.29296875,16.375,23.0625,-31.9375,0,0.001953125,0.01171875,0.0615234375,0.001770019531,0.2741699219,0.9597167969,0.09576806641,-1.08217915,10.30464395,0.03757121089,0.007460949679,0.005062787282
841.3598979,36.35252667,147.8318676,8.130750066,0.3515625,1.19921875,10.44921875,16.375,23.0625,-31.9375,0.001953125,0,0.001953125,0.0615234375,0.001770019531,0.2741699219,0.9597167969,-0.239420166,-0.7948749512,10.02691655,0.02984379872,0.01092496203,0.005062787282
841.3932312,26.85869466,143.5841807,8.135327876,-0.2265625,1.046875,12.1640625,16.0625,24.8125,-32.6875,0.421875,0.373046875,-0.087890625,0.0615234375,0.001770019531,0.2741699219,0.9597167969,-33.97850996,-24.47831777,305.2319813,-0.2613997013,-0.1049862205,-0.2624655512
841.4265645,38.00234745,150.668649,8.126172253,8.28125,2.38671875,19.5234375,15.375,24.4375,-34.125,0.421875,0.373046875,-0.087890625,0.06408691406,0.003662109375,0.2730712891,0.9598388672,12.04762275,-4.87459458,106.0152495,0.1761317049,0.2187657031,0.197981629
841.4598978,40.0056075,149.494433,8.130750066,1.30859375,1.2734375,52.01171875,15.375,24.4375,-34.125,0.0390625,-0.0859375,0.099609375,0.06628417969,-0.0008544921875,0.2709960938,0.9602661133,2.978386865,11.70285771,98.46872588,0.3400061354,-0.09272894602,-0.4487228307
841.4932311,38.81802472,148.4883134,8.130750066,5.484375,-0.83203125,76.64453125,15.6875,24.8125,-31.9375,-0.04296875,-0.10546875,-0.37890625,0.06628417969,-0.0008544921875,0.2709960938,0.9602661133,-6.426037256,-0.3351882324,90.30928662,0.116177645,-0.01838591171,-0.1700030677
841.5265644,40.52425523,149.4807265,8.135327876,1.19140625,1.734375,78.13671875,15.375,25.5625,-34.125,-0.04296875,-0.10546875,-0.37890625,0.06616210938,-0.003356933594,0.2612915039,0.9630126953,12.99572661,-7.852981445,94.61884961,-0.0791393591,0.07061255947,0.2440796395
841.5598977,41.64816617,149.6624228,8.135327876,2.609375,-0.3359375,79.36328125,15.375,25.5625,-34.125,0.001953125,0.103515625,0.03125,0.06567382813,-0.0009765625,0.2650756836,0.9619750977,1.091755957,2.825157959,99.73286436,0.03517304849,0.009326187099,-0.4330015439
841.593231,45.93380856,151.4795561,8.139905682,6.44140625,0.2421875,79.24609375,15.75,25.9375,-33.125,-0.03515625,-0.125,0.251953125,0.06567382813,-0.0009765625,0.2650756836,0.9619750977,-8.791508496,-3.102885352,114.1363815,0.06581623467,-0.07460949679,-0.04369984812
841.6265643,43.73044744,149.5784257,8.139905682,2.953125,0.96875,78.4765625,15,24.4375,-33.75,-0.03515625,-0.125,0.251953125,0.06512451172,-0.002075195313,0.2630615234,0.9625854492,13.60864224,16.50083784,97.65469731,0.04609801052,-0.08473507136,-0.1092496203
841.6598976,46.36304574,151.2138022,8.135327876,2.953125,0.5078125,79.3203125,15,24.4375,-33.75,-0.017578125,0.01953125,0.201171875,0.06433105469,-0.003051757813,0.2623901367,0.9628295898,-3.59130249,-9.030928662,97.30993228,0.04529862305,0.05409188518,0.1308330819
841.6932309,48.61046216,151.77265,8.121594437,1.99609375,0.43359375,78.63671875,15,25.875,-32.375,-0.0234375,-0.044921875,-0.15625,0.06433105469,-0.003051757813,0.2623901367,0.9628295898,-2.700659473,2.528276953,104.406346,0.07833997163,-0.03863706084,-0.1377611066
841.7265642,53.48152218,153.6741494,8.117016617,1.26953125,0.85546875,79.36328125,15.375,24.8125,-34.875,-0.0234375,-0.044921875,-0.15625,0.06396484375,-0.004089355469,0.2598876953,0.9635009766,0.134075293,1.187524023,98.2101521,0.02344869899,0.006928024702,-0.1137794826
841.7598975,56.5448995,154.2194501,8.126172253,1.34765625,0.9296875,79.359375,15.375,24.8125,-34.875,0.001953125,0.0234375,-0.126953125,0.06384277344,-0.003845214844,0.2568359375,0.9643554688,-0.3830722656,0.8331821777,96.0457938,-0.0162542118,0.0138560494,-0.1350964817
841.7932308,60.58980363,155.5760275,8.130750066,1.3828125,0.9296875,79.36328125,15.375,24.4375,-33.75,0.03515625,0.087890625,-0.166015625,0.06384277344,-0.003845214844,0.2568359375,0.9643554688,-1.513135449,-0.009576806641,95.86383447,-0.04556508554,0.0604869849,-0.1681378303
841.8265641,64.65829162,156.7645539,8.126172253,1.5390625,0.9296875,79.36328125,15.375,25.1875,-34.8125,0.03515625,0.087890625,-0.166015625,0.06402587891,-0.001770019531,0.2531738281,0.9652709961,-1.493981836,-0.4213794922,100.1159366,-0.1164441075,0.07381010933,-0.1963828541
841.8598974,68.90498619,158.0373327,8.126172253,1.57421875,1.046875,79.359375,15.375,25.1875,-34.8125,0.0625,0.146484375,-0.212890625,0.06451416016,0.002014160156,0.2486572266,0.9664306641,-0.8906430176,-0.6703764648,95.72975918,-0.140692194,0.09939050823,-0.2462113394
841.8932307,72.46577862,158.946553,8.121594437,1.69140625,1.08203125,79.36328125,14.1875,24.4375,-33.375,0.107421875,0.19921875,-0.2890625,0.06451416016,0.002014160156,0.2486572266,0.9664306641,-1.244984863,0.1819593262,98.73687646,-0.1742664675,0.1566799433,-0.2987044497
841.926564,76.30964397,160.1219026,8.117016617,1.95703125,1.0078125,79.359375,15.375,24.8125,-34.5,0.107421875,0.19921875,-0.2890625,0.06567382813,0.007507324219,0.2424926758,0.9678955078,0.7661445312,0.4596867188,94.69546406,-0.1716018426,0.1753323175,-0.3213537612
841.9598973,82.16797102,162.2203856,8.121594437,2.2265625,0.77734375,79.359375,15.375,24.8125,-34.5,0.13671875,0.224609375,-0.341796875,0.06756591797,0.01409912109,0.2350463867,0.969543457,-0.4118026855,0.01915361328,96.32352119,-0.1945176166,0.1771975549,-0.3669188467
841.9932306,87.63492695,163.7599928,8.121594437,2.49609375,0.77734375,79.359375,16.4375,24.5,-33,0.16796875,0.2265625,-0.44140625,0.06756591797,0.01409912109,0.2350463867,0.969543457,-1.417367383,-0.4118026855,96.46717329,-0.1899877543,0.1857243545,-0.4577825553
842.0265639,95.4098801,166.4893721,8.126172253,2.87890625,0.85546875,79.36328125,16.5,26.625,-33.0625,0.16796875,0.2265625,-0.44140625,0.06994628906,0.02111816406,0.2253417969,0.9715576172,-1.388636963,0.7948749512,97.00347446,-0.1891883669,0.2038438037,-0.5766248252
842.0598972,102.557308,168.4913593,8.135327876,2.87890625,0.85546875,79.36328125,16.5,26.625,-33.0625,0.181640625,0.216796875,-0.58203125,0.07275390625,0.02844238281,0.2124633789,0.9740600586,-1.762132422,1.551442676,96.05537061,-0.1718683051,0.221963253,-0.6554977218
842.0932305,108.3597754,169.9609032,8.126172253,2.9921875,0.73828125,79.36328125,17.25,25.25,-32.6875,0.1953125,0.1953125,-0.71484375,0.07275390625,0.02844238281,0.2124633789,0.9740600586,-1.857900488,1.130063184,95.82552725,-0.1550811683,0.2296906651,-0.7418315681
842.1265638,113.9668429,171.5860761,8.126172253,3.3359375,0.39453125,79.36328125,18.375,27.4375,-34.1875,0.1953125,0.1953125,-0.71484375,0.07580566406,0.03558349609,0.196472168,0.9769287109,-0.3064578125,0.01915361328,96.05537061,-0.1425574314,0.2240949529,-0.790327741
842.1598971,121.0311284,173.9532282,8.126172253,3.3359375,0.01171875,79.359375,18.375,27.4375,-34.1875,0.1953125,0.1640625,-0.791015625,0.07916259766,0.04235839844,0.1775512695,0.9799804688,-0.7565677246,0.4213794922,97.54935244,-0.1119142452,0.2251608028,-0.8588086006
842.1932304,129.8062126,176.8805503,8.130750066,3.60546875,0.0859375,79.359375,16.125,27,-32.375,0.185546875,0.125,-0.9140625,0.07916259766,0.04235839844,0.1775512695,0.9799804688,0.7565677246,0.8331821777,95.10726675,-0.06181929734,0.1923859167,-0.9499387717
842.2265637,137.5226285,178.9821116,8.121594437,3.875,-0.140625,79.359375,16.5,27.375,-34.5625,0.185546875,0.125,-0.9140625,0.08215332031,0.04827880859,0.1560058594,0.9831542969,1.302445703,2.547430566,95.20303481,-0.04210107319,0.1891883669,-1.018686094
842.259897,147.2413372,182.2489265,8.117016617,4.1796875,-0.37109375,79.359375,16.5,27.375,-34.5625,0.150390625,0.072265625,-1.01953125,0.08459472656,0.05310058594,0.131652832,0.9862670898,1.972822168,4.884171387,97.73131177,-0.01039203705,0.1646738179,-1.094094978
842.2932303,155.4877093,184.4361276,8.126172253,4.6796875,-0.140625,79.36328125,15.5,28.4375,-33.4375,0.125,0,-1.185546875,0.08459472656,0.05310058594,0.131652832,0.9862670898,1.273715283,4.491522314,97.14712656,0.08686677127,0.1380275691,-1.242781047
842.3265636,164.6779784,187.3530915,8.126172253,5.0625,-0.06640625,79.359375,15.5625,30.9375,-33.5,0.125,0,-1.185546875,0.08624267578,0.05651855469,0.1036376953,0.9892578125,-0.3926490723,2.53785376,96.43844287,0.1308330819,0.1574793307,-1.339773392
842.3598969,174.4019895,190.3555818,8.126172253,5.40625,-0.48828125,79.359375,15.5625,30.9375,-33.5,0.111328125,-0.103515625,-1.34375,0.08740234375,0.05792236328,0.07110595703,0.9919433594,-1.570596289,1.819593262,97.28120186,0.2294242026,0.1185758074,-1.377344603
842.3932302,183.7737165,193.091754,8.112438794,5.0625,-0.91015625,79.36328125,13.625,29.8125,-33.5,0.076171875,-0.212890625,-1.416015625,0.08740234375,0.05792236328,0.07110595703,0.9919433594,1.13963999,3.878606689,94.07297163,0.2592680014,0.1159111825,-1.45515165
842.4265635,191.7029975,195.1963757,8.126172253,4.71875,-0.83203125,79.36328125,12.5625,30.875,-33.875,0.076171875,-0.212890625,-1.416015625,0.08795166016,0.05657958984,0.03607177734,0.9938354492,0.6991068848,3.476380811,100.2787423,0.3373415105,0.08500153385,-1.467142462
842.4598968,200.7629562,198.1162758,8.126172253,3.9140625,-0.48828125,79.36328125,12.5625,30.875,-33.875,0.0625,-0.287109375,-1.443359375,0.08758544922,0.05310058594,-0.0008544921875,0.9947509766,0.4979939453,1.896207715,95.46160859,0.3874364584,0.09379479597,-1.471405862
842.4932301,210.4572879,201.1346184,8.130750066,3.3359375,-0.41015625,79.36328125,11.875,32.6875,-33.1875,0.068359375,-0.302734375,-1.4453125,0.08758544922,0.05310058594,-0.0008544921875,0.9947509766,1.417367383,1.541865869,99.11037192,0.3783767337,0.1039203705,-1.440229751
842.5265634,221.8738159,204.8716001,8.121594437,2.1484375,-0.140625,79.359375,8.625,34,-34.625,0.068359375,-0.302734375,-1.4453125,0.08715820313,0.04876708984,-0.03741455078,0.9942626953,1.675941162,0.4692635254,92.84714038,0.3149586615,0.1084502328,-1.39839514
842.5598967,232.4365699,207.8791928,8.121594437,1.65234375,-0.3359375,79.359375,8.625,34,-34.625,0.08203125,-0.275390625,-1.37890625,0.08709716797,0.04455566406,-0.07299804688,0.9925537109,-2.327164014,-0.3064578125,96.97474404,0.3368085855,0.1404257315,-1.319788706
842.59323,243.8284369,211.4484472,8.130750066,1.19140625,-0.21875,79.36328125,6.375,34.3125,-33.5625,0.08203125,-0.212890625,-1.255859375,0.08709716797,0.04455566406,-0.07299804688,0.9925537109,-1.417367383,-4.692635254,92.71306509,0.2624655512,0.1886554419,-1.220931123
842.6265633,255.5347313,215.0188228,8.126172253,0.88671875,-0.6015625,79.36328125,4.875,34.6875,-36.4375,0.08203125,-0.212890625,-1.255859375,0.08721923828,0.04138183594,-0.1057128906,0.9896850586,2.116474268,-2.815581152,91.38188896,0.2227626404,0.105252683,-1.135396664
842.6598966,266.9559155,218.3950673,8.121594437,0.734375,-1.0234375,79.36328125,4.875,34.6875,-36.4375,0.078125,-0.109375,-1.119140625,0.08764648438,0.04016113281,-0.1343994141,0.9862060547,-2.796427539,-1.628057129,95.82552725,0.05649004757,0.06448392223,-1.090630966
842.6932299,279.4013834,222.3212385,8.126172253,0.6953125,-0.75390625,79.3203125,4.9375,36.4375,-35.125,0.078125,-0.109375,-1.119140625,0.08764648438,0.04016113281,-0.1343994141,0.9862060547,3.476380811,-6.751648682,93.90058911,0.03304134858,0.01412251189,-1.025614118
842.7265632,292.4396333,226.3465506,8.126172253,0.65625,-1.0625,79.28125,2.4375,35.25,-36.125,0.0390625,-0.005859375,-1.005859375,0.08776855469,0.04138183594,-0.1602783203,0.9822998047,3.888183496,-2.145204687,92.42576089,-0.06208575983,-0.006661562214,-0.9502052342
842.7598965,304.3903425,229.7387289,8.130750066,1,-1.1015625,79.359375,2.4375,35.25,-36.125,-0.005859375,0.087890625,-0.921875,0.08728027344,0.04486083984,-0.1832885742,0.9781494141,-4.683058447,-1.656787549,92.52152896,-0.08446860887,-0.02531393641,-0.9238254478
842.7932298,317.8183171,234.047535,8.126172253,1.5390625,-0.6796875,79.36328125,2.0625,35.625,-34.75,-0.04296875,0.14453125,-0.875,0.08728027344,0.04486083984,-0.1832885742,0.9781494141,-0.6895300781,0.7278373047,94.52308154,-0.07754058417,0.01092496203,-0.8380245265
842.8265631,331.7596441,238.3339919,8.130750066,2.11328125,-0.48828125,79.359375,2.5,36.75,-35.4375,-0.04296875,0.14453125,-0.875,0.08605957031,0.05004882813,-0.2044067383,0.973815918,2.049436621,2.39420166,91.80326846,-0.127635532,-0.009859112076,-0.8598744505
842.8598964,346.1479104,242.7438622,8.130750066,2.6875,-0.21875,79.359375,2.5,36.75,-35.4375,-0.052734375,0.1484375,-0.873046875,0.08453369141,0.0556640625,-0.2252807617,0.9689941406,-0.3064578125,-3.409343164,90.48166914,-0.1071179204,-0.04689739798,-0.9480735343
842.8932297,359.5451329,246.5934874,8.130750066,3.0703125,0.05078125,79.359375,1.75,38.125,-34.375,-0.044921875,0.119140625,-0.916015625,0.08453369141,0.0556640625,-0.2252807617,0.9689941406,2.853888379,8.839392529,95.4711854,-0.0511607978,-0.05275957273,-0.942477822
842.926563,374.0808062,251.1781849,8.130750066,3.94921875,0.66015625,79.203125,0.625,36.3125,-35.4375,-0.044921875,0.119140625,-0.916015625,0.08288574219,0.06097412109,-0.2466430664,0.9636230469,5.295974072,2.413355273,94.4656207,-0.03037672369,-0.0007993874656,-0.9560674089
842.9598963,389.6078883,256.0342862,8.126172253,4.06640625,0.69921875,79.36328125,0.625,36.3125,-35.4375,-0.009765625,0.0546875,-0.96875,0.08135986328,0.06500244141,-0.2694091797,0.9573974609,0.4979939453,0.9097966309,88.50884697,0.02131699908,0.02344869899,-1.030676906
842.9932296,404.9555375,260.6230875,8.126172253,4.06640625,0.69921875,79.36328125,1.3125,36.6875,-34,0.017578125,-0.009765625,-1.056640625,0.08135986328,0.06500244141,-0.2694091797,0.9573974609,1.08217915,2.930502832,88.70038311,0.05542419762,0.08393568389,-1.081038316
843.0265629,419.852666,265.0301936,8.130750066,4.10546875,0.73828125,79.28125,-1.5625,38.0625,-37.25,0.017578125,-0.009765625,-1.056640625,0.08001708984,0.06750488281,-0.2938842773,0.9500732422,1.28329209,6.512228516,88.32688765,0.1076508454,0.05782236002,-1.122073539
843.0598962,436.0995885,270.1741185,8.126172253,3.9140625,0.5859375,79.3203125,-1.5625,38.0625,-37.25,0.048828125,-0.060546875,-1.12890625,0.07867431641,0.06829833984,-0.3202514648,0.9415893555,1.618480322,3.878606689,93.82397466,0.1692036802,0.1247044446,-1.205209836
843.0932295,451.9232396,274.8665689,8.121594437,3.4140625,0.890625,79.28125,-3.0625,37.625,-35.0625,0.076171875,-0.09375,-1.177734375,0.07867431641,0.06829833984,-0.3202514648,0.9415893555,9.595960254,10.25675991,88.46096294,0.1737335425,0.1207075073,-1.193751949
843.1265628,467.5628841,279.5497871,8.130750066,2.76171875,0.81640625,78.9765625,-4.125,38.6875,-35.5,0.076171875,-0.09375,-1.177734375,0.07751464844,0.06817626953,-0.3477783203,0.9318847656,-7.565677246,-1.25456167,87.33089976,0.1239050572,0.08233690896,-1.188955624
843.1598961,484.4773631,284.8847267,8.126172253,2.76171875,0.46875,79.09765625,-4.125,38.6875,-35.5,0.103515625,-0.076171875,-1.17578125,0.07708740234,0.06774902344,-0.3753662109,0.9212036133,1.120486377,1.570596289,92.86629399,0.1108483952,0.1065849954,-1.157779513
843.1932294,500.5344637,289.5724989,8.130750066,2.45703125,0.31640625,78.9765625,-5.3125,37.1875,-34.8125,0.12109375,-0.041015625,-1.125,0.07708740234,0.06774902344,-0.3753662109,0.9212036133,-4.587290381,-4.050989209,86.74671455,0.151617156,0.128701382,-1.110615652
843.2265627,518.0145222,295.1075937,8.135327876,2.11328125,-0.41015625,78.3984375,-7.5625,37.125,-35.5,0.12109375,-0.041015625,-1.125,0.07739257813,0.06756591797,-0.4016723633,0.9099731445,-0.8810662109,-2.39420166,88.88234243,0.07620827173,0.1063185329,-1.084502328
843.259896,534.8510769,300.0709226,8.121594437,2.265625,-1.0234375,78.21484375,-7.5625,37.125,-35.5,0.09765625,0.013671875,-1.05859375,0.07800292969,0.06829833984,-0.4260864258,0.8986816406,3.543418457,3.744531396,90.20394175,-0.1590781057,0.02637978637,-0.9909739949
843.2932293,552.8120461,305.6980935,8.130750066,2.53515625,-1.40625,78.1328125,-8.625,37.0625,-35.5,0.041015625,0.001953125,-1.0234375,0.07800292969,0.06829833984,-0.4260864258,0.8986816406,4.865017773,2.671929053,90.12732729,-0.05196018527,0.01598774931,-1.052260367
843.3265626,572.1265993,311.7734386,8.130750066,2.7265625,-1.8671875,77.3671875,-9.0625,36,-35.4375,0.041015625,0.001953125,-1.0234375,0.07757568359,0.07000732422,-0.44921875,0.8873291016,-4.213794922,-1.781286035,90.89347183,0.09006432113,0.04050229826,-1.061320092
843.3598959,589.7136511,316.7659781,8.130750066,2.53515625,-1.40625,77.7109375,-9.0625,36,-35.4375,-0.01953125,0.0234375,-0.998046875,0.07580566406,0.07238769531,-0.4714355469,0.8756713867,2.212242334,-1.072602344,87.73312563,-0.05062787282,-0.02931087374,-0.9853782827
843.3932292,608.1423556,322.4888924,8.130750066,3.18359375,-1.0234375,78.25390625,-9.8125,36,-35.4375,-0.04296875,-0.015625,-1.021484375,0.07580566406,0.07238769531,-0.4714355469,0.8756713867,-5.104437939,-8.149862451,74.32559634,0.006661562214,-0.02584686139,-1.085301716
843.4265625,625.9291648,327.7478651,8.121594437,3.26171875,-0.10546875,77.55859375,-12,35.9375,-36.875,-0.04296875,-0.015625,-1.021484375,0.07318115234,0.07507324219,-0.493347168,0.8634643555,-7.201758594,-14.09705937,84.66854751,0.05728943504,0.003197549863,-1.102088853
843.4598958,645.0184579,333.7590957,8.135327876,3.0703125,-0.02734375,76.98828125,-12,35.9375,-36.875,-0.044921875,0.00390625,-1.05859375,0.07043457031,0.07769775391,-0.515625,0.8503417969,2.806004346,-0.1244984863,79.79395293,-0.07274425937,-0.05382542269,-1.085568178
843.4932292,664.2081004,339.578613,8.130750066,2.9921875,0.46875,76.7890625,-12.375,36.25,-34.0625,-0.0078125,-0.025390625,-1.107421875,0.07043457031,0.07769775391,-0.515625,0.8503417969,-1.589749902,-1.28329209,84.43870415,0.05275957273,-0.02398162397,-1.167638625
843.5265625,682.1086591,344.7587013,8.135327876,3.109375,0.39453125,78.4375,-13.5,36.25,-36.9375,-0.0078125,-0.025390625,-1.107421875,0.06774902344,0.07946777344,-0.5386352539,0.8359985352,-0.5650315918,10.05564697,80.22490923,0.05542419762,0.005062787282,-1.120208302
843.5598958,702.9702023,351.6076861,8.126172253,2.91796875,-0.10546875,77.40625,-13.5,36.25,-36.9375,0.041015625,-0.033203125,-1.130859375,0.06567382813,0.08056640625,-0.5620117188,0.8205566406,7.29752666,3.73495459,89.72510142,0.004796324794,-0.005862174748,-1.16603985
843.5932291,723.8337551,357.9149088,8.130750066,2.5703125,0.0859375,76.71875,-15.375,35.0625,-35.8125,0.041015625,-0.005859375,-1.15234375,0.06567382813,0.08056640625,-0.5620117188,0.8205566406,2.5953146,3.112462158,75.29285381,-0.005062787282,-0.01065849954,-1.189488549
843.6265624,744.6856053,364.216064,8.126172253,2.37890625,-0.1796875,77.59375,-15.75,34.6875,-35.8125,0.041015625,-0.005859375,-1.15234375,0.06378173828,0.08129882813,-0.5854492188,0.8040771484,0.5650315918,-7.029376074,84.84093003,0.1231056697,0.04849617292,-1.159378288
843.6598957,765.710199,370.6089867,8.121594437,2.2265625,-0.9453125,77.94140625,-15.75,34.6875,-35.8125,0.044921875,0.03515625,-1.146484375,0.06262207031,0.08264160156,-0.6083984375,0.7868041992,13.8480624,6.665457422,67.7846374,0.1164441075,0.07967228408,-1.145522238
843.693229,786.599169,376.9084345,8.130750066,2.953125,-0.984375,71.7734375,-17.625,33.1875,-35.8125,0.021484375,-0.005859375,-1.171875,0.06262207031,0.08264160156,-0.6083984375,0.7868041992,-2.633621826,7.134720947,60.95637427,0.04023583577,-0.07807350915,-1.249709071
843.7265623,811.0995341,384.9901042,8.135327876,2.91796875,-1.17578125,53.19921875,-17.625,33.25,-36.5,0.021484375,-0.005859375,-1.171875,0.06103515625,0.08428955078,-0.6309814453,0.7687988281,2.059013428,6.138733057,31.83330527,0.05728943504,-0.1199081198,-1.237718259
843.7598956,835.9943407,392.6085503,8.126172253,3.3359375,-0.5625,30.9375,-17.625,33.25,-36.5,-0.017578125,0.005859375,-1.19921875,0.05822753906,0.08618164063,-0.6535644531,0.7496948242,4.367023828,2.710236279,6.789955908,0.0953935709,-0.05942113495,-1.284349195
843.7932289,861.4267658,400.4273174,8.130750066,3.14453125,-0.41015625,12.625,-19.1875,31.75,-35.4375,-0.025390625,-0.076171875,-1.248046875,0.05822753906,0.08618164063,-0.6535644531,0.7496948242,11.63582007,7.393294727,-2.346317627,0.03197549863,-0.1654732054,-1.239050572
843.8265622,889.7136675,409.5373183,8.126172253,2.41796875,1.390625,-8.515625,-20.6875,32,-36.1875,-0.025390625,-0.076171875,-1.248046875,0.05407714844,0.08715820313,-0.6765136719,0.7292480469,6.751648682,-9.184157568,-4.702212061,0.2400827022,-0.08340275892,-1.379209841
843.8598955,913.529192,415.9666911,8.139905682,1.5390625,1.08203125,-7.87109375,-20.6875,32,-36.1875,-0.01953125,-0.1328125,-1.26953125,0.04858398438,0.08721923828,-0.6994018555,0.7077026367,-7.249642627,-4.520252734,-15.4282355,0.1889219044,0.1223062822,-1.235853022
843.8932288,933.1604855,421.1925131,8.130750066,0.1953125,0.5078125,-6.828125,-21.4375,30.5625,-35.4375,-0.005859375,-0.078125,-1.23046875,0.04858398438,0.08721923828,-0.6994018555,0.7077026367,-12.75630645,-5.181052393,34.58184878,0.3133598865,0.0836692214,-1.192153174
843.9265621,954.6309055,428.0824136,8.121594437,0.234375,1.08203125,-6.68359375,-24,29.75,-36.1875,-0.005859375,-0.078125,-1.23046875,0.04406738281,0.08746337891,-0.7211914063,0.6857910156,10.3812584,-3.543418457,3.840299463,0.01785298673,-0.007194487191,-1.350698354
843.9598954,975.4744557,434.3279867,8.121594437,-0.109375,0.73828125,-8.78125,-24,29.75,-36.1875,0.033203125,-0.009765625,-1.296875,0.04113769531,0.087890625,-0.742980957,0.6622924805,4.118026855,3.495534424,-14.05875215,0.0231822365,0.1596110306,-1.255304784
843.9932287,997.0663621,441.0562482,8.126172253,0.08203125,0.35546875,-7.98046875,-23,28.375,-36.125,0.033203125,0.03125,-1.236328125,0.04113769531,0.087890625,-0.742980957,0.6622924805,-4.472368701,0.6320692383,-15.44738911,-0.02691271134,0.03650536093,-1.239583497
844.026562,1017.970137,447.3174491,8.121594437,0.734375,-0.140625,-8.44140625,-23,28.375,-36.125,0.033203125,0.03125,-1.236328125,0.03936767578,0.08905029297,-0.7634277344,0.6385498047,5.851428857,2.097320654,-11.8273562,-0.03837059835,0.09752527081,-1.191353786
844.0598953,1037.054751,452.82665,8.130750066,1.34765625,-0.41015625,-8.28125,-23,28.375,-36.125,-0.0078125,0.068359375,-1.203125,0.0380859375,0.09112548828,-0.7823486328,0.6149291992,-1.034295117,0.4884171387,-9.126696729,-0.03224196111,0.06181929734,-1.198281811
844.0932286,1058.162277,459.6481498,8.126172253,1.8828125,-0.41015625,-8.3203125,-25.6875,25.75,-35.375,-0.04296875,0.068359375,-1.2265625,0.0380859375,0.09112548828,-0.7823486328,0.6149291992,3.773261816,-3.160346191,-6.445190869,0.03011026121,-0.002664624885,-1.248376759
844.1265619,1076.382996,464.6999065,8.126172253,2.07421875,-0.02734375,-8.28125,-26.375,25.0625,-35.3125,-0.04296875,0.068359375,-1.2265625,0.03619384766,0.09381103516,-0.8005981445,0.5906982422,-3.830722656,2.844311572,-11.17613335,0.03837059835,0.1020551331,-1.144989313
844.1598952,1098.72908,472.2783445,8.126172253,2.2265625,0.35546875,-8.21484375,-26.375,25.0625,-35.3125,-0.0390625,-0.0234375,-1.248046875,0.03283691406,0.09576416016,-0.8184204102,0.565612793,11.04205806,3.160346191,-11.60708965,0.1217733573,-0.07381010933,-1.269427295
844.1932285,1119.778428,478.4677654,8.121594437,2.03515625,1.0078125,-8.28515625,-26.4375,24.3125,-35.6875,-0.01953125,-0.05078125,-1.2734375,0.03283691406,0.09576416016,-0.8184204102,0.565612793,1.436520996,5.200206006,-7.4986396,0.01891883669,-0.01971822415,-1.248110296
844.2265618,1138.385429,483.7159241,8.126172253,1.5390625,1.50390625,-8.09375,-28.0625,21,-36.3125,-0.01953125,-0.05078125,-1.2734375,0.02844238281,0.09674072266,-0.8359985352,0.5394287109,-1.541865869,-1.704671582,-11.56878242,0.1766646299,0.04529862305,-1.276088858
844.2598951,1160.135247,490.9328587,8.121594437,1.3828125,0.85546875,-7.9765625,-28.0625,21,-36.3125,0.00390625,-0.048828125,-1.26953125,0.0244140625,0.09698486328,-0.8526611328,0.5128173828,-7.086836914,-3.84987627,-7.814674219,0.0373047484,0.03464012351,-1.285148582
844.2932284,1180.005378,496.6599882,8.135327876,1.1171875,1.08203125,-7.87109375,-27.6875,19.5625,-35.625,0.02734375,-0.015625,-1.279296875,0.0244140625,0.09698486328,-0.8526611328,0.5128173828,5.497087012,4.491522314,-5.497087012,-0.06261868481,0.06661562214,-1.324318568
844.3265617,1201.484364,503.5102056,8.126172253,0.88671875,1.19921875,-7.75390625,-28.125,19.5625,-37.0625,0.02734375,-0.015625,-1.279296875,0.02117919922,0.09692382813,-0.8685302734,0.4855957031,5.650315918,-6.052541797,-3.007117285,0.03703828591,0.1364287941,-1.345635567
844.359895,1222.636062,509.9051377,8.130750066,0.234375,0.125,-7.71484375,-28.125,19.5625,-37.0625,0.05078125,0.017578125,-1.265625,0.01867675781,0.09655761719,-0.8836669922,0.4576416016,-2.059013428,-6.311115576,-9.299079248,0.05968759744,-0.01678713678,-1.282217495
844.3932283,1242.486119,515.7329618,8.121594437,0.65625,-0.21875,-7.87109375,-28.125,17.75,-35.25,0.013671875,0.072265625,-1.21875,0.01867675781,0.09655761719,-0.8836669922,0.4576416016,-0.0478840332,-2.978386865,-19.62287681,-0.06901378453,-0.007194487191,-1.27102607
844.4265616,1263.979729,522.5956517,8.126172253,0.80859375,-0.2578125,-7.63671875,-28.875,16.625,-35.875,0.013671875,0.072265625,-1.21875,0.01715087891,0.09698486328,-0.8973999023,0.4301147461,9.088389502,1.857900488,-10.02691655,-0.05782236002,-0.009592649588,-1.259301721
844.4598949,1282.415678,527.6774579,8.126172253,1.1171875,-0.10546875,-7.55859375,-28.875,16.625,-35.875,-0.033203125,0.048828125,-1.197265625,0.01531982422,0.09838867188,-0.9098510742,0.4028930664,-7.872135059,-10.51533369,-10.33337437,-0.1143124076,-0.07301072186,-1.224395135
844.4932282,1301.629539,533.6972937,8.112438794,1,0.66015625,-7.515625,-27.875,13.8125,-34.5,-0.03125,0.056640625,-1.2109375,0.01531982422,0.09838867188,-0.9098510742,0.4028930664,-6.464344482,-8.647856396,-5.880159277,0.006128637237,0.02957733623,-1.187623311
844.5265615,1321.968827,540.1160164,8.121594437,1.57421875,0.96875,-7.51953125,-27.875,13.8125,-36.25,-0.03125,0.056640625,-1.2109375,0.01361083984,0.1001586914,-0.9213867188,0.3752441406,5.468356592,5.305550879,-5.363011719,0.09192955855,0.03597243595,-1.237451797
844.5598948,1341.16215,545.7718589,8.121594437,1.73046875,1.08203125,-7.4765625,-27.875,13.8125,-36.25,-0.005859375,0.04296875,-1.23046875,0.01159667969,0.1015014648,-0.932434082,0.3466796875,-3.093308545,-2.3080104,-7.785943799,0.03437366102,0.03117611116,-1.227592685
844.5932281,1360.103344,551.5162806,8.126172253,2.1484375,1.50390625,-7.2890625,-28.6875,13.0625,-35.5,0.0234375,0.005859375,-1.267578125,0.01159667969,0.1015014648,-0.932434082,0.3466796875,4.941632227,7.201758594,-5.861005664,0.1382940316,0.04023583577,-1.284349195
844.6265614,1379.749596,557.6475125,8.126172253,2.7265625,1.88671875,-7.33203125,-28.375,10.9375,-36.1875,0.0234375,0.005859375,-1.267578125,0.009155273438,0.1017456055,-0.9428100586,0.317199707,-0.7565677246,2.62404502,-5.181052393,0.1073843829,0.1273690695,-1.313660069
844.6598947,1399.886348,563.8852871,8.126172253,2.3046875,1.62109375,-7.44921875,-28.375,10.9375,-36.1875,0.06640625,-0.021484375,-1.32421875,0.005493164063,0.1005249023,-0.9528808594,0.2862548828,-1.455674609,-0.3351882324,-6.924031201,0.08393568389,0.09006432113,-1.353096517
844.693228,1417.269614,568.7007202,8.126172253,2.1484375,1.3125,-7.2890625,-28,9.875,-35.875,0.076171875,-0.0703125,-1.32421875,0.005493164063,0.1005249023,-0.9528808594,0.2862548828,2.987963672,0.2106897461,-6.435614063,0.1412251189,0.1068514579,-1.352563592
844.7265613,1436.747502,575.0365907,8.126172253,1.61328125,0.625,-7.171875,-27.3125,8.0625,-35.4375,0.076171875,-0.0703125,-1.32421875,0.001220703125,0.09838867188,-0.9620361328,0.2546386719,-4.903325,-7.000645654,-5.631162305,0.1071179204,0.06315160979,-1.336575843
844.7598946,1458.791849,582.2250186,8.126172253,0.00390625,1.12109375,-7.2109375,-27.3125,8.0625,-35.4375,0.08984375,-0.091796875,-1.2890625,-0.003234863281,0.09576416016,-0.9699707031,0.223449707,1.513135449,1.024718311,-0.1244984863,0.1108483952,0.2179663156,-1.236119484
844.7932279,1480.058537,588.5636858,8.121594437,0.2734375,-0.71875,-7.09765625,-27.375,6.625,-34.375,0.0703125,0.009765625,-1.212890625,-0.003234863281,0.09576416016,-0.9699707031,0.223449707,4.319139795,-1.465251416,-4.558559961,0.05062787282,0.103653908,-1.220131735
844.8265612,1500.462142,594.6295844,8.126172253,-0.5703125,-1.17578125,-7.06640625,-25.9375,6.3125,-35.75,0.0703125,0.009765625,-1.212890625,-0.00634765625,0.09350585938,-0.9766235352,0.1934814453,-1.972822168,-2.078167041,-12.43069502,-0.02158346157,0.05995405992,-1.195350724
844.8598945,1518.562453,599.7411843,8.126172253,0.04296875,-0.9453125,-6.94921875,-25.9375,6.3125,-35.75,-0.01953125,0.087890625,-1.12890625,-0.007751464844,0.09332275391,-0.9818725586,0.164855957,11.70285771,4.797980127,-6.090849023,-0.08793262122,-0.08340275892,-1.100490078
844.8932278,1536.188753,605.0499005,8.117016617,1.421875,-1.328125,-6.87109375,-25.5625,4.5,-35.75,-0.087890625,0.068359375,-1.109375,-0.007751464844,0.09332275391,-0.9818725586,0.164855957,4.635174414,3.70622417,-9.624690674,0.02824502379,-0.08686677127,-1.160444138
844.9265611,1556.197068,611.5969948,8.130750066,1.23046875,-0.21875,-7.0234375,-24.5625,3.125,-35.75,-0.087890625,0.068359375,-1.109375,-0.008544921875,0.09509277344,-0.9859008789,0.1375732422,2.681505859,-2.499546533,-9.768342773,-0.1143124076,-0.1044532955,-1.076774916
844.9598944,1573.197335,616.2494277,8.126172253,1.5,0.890625,-6.7890625,-24.5625,3.125,-35.75,-0.115234375,0.091796875,-1.134765625,-0.009582519531,0.09796142578,-0.9891357422,0.1094360352,2.987963672,-0.8810662109,-6.732495068,-0.02584686139,-0.07967228408,-1.188689161
844.9932277,1592.38019,622.5116379,8.126172253,1.57421875,1.390625,-6.6015625,-23.125,0.625,-33.875,-0.078125,0.0625,-1.1796875,-0.009582519531,0.09796142578,-0.9891357422,0.1094360352,0.6512228516,1.666364355,-6.933608008,0.04529862305,-0.04743032296,-1.28701382
845.026561,1610.843334,628.021873,8.130750066,1.5390625,1.88671875,-6.87109375,-23.4375,2.0625,-35.3125,-0.078125,0.0625,-1.1796875,-0.01129150391,0.1000976563,-0.9916381836,0.08050537109,-0.6895300781,-1.101332764,-6.607996582,-0.02291577402,-0.003996937328,-1.164707537
845.0598943,1627.465978,632.7743856,8.121594437,1.65234375,2.04296875,-6.6015625,-23.4375,2.0625,-35.3125,-0.0234375,0.01953125,-1.20703125,-0.01379394531,0.1006469727,-0.9935302734,0.05023193359,-7.287949854,-5.688623145,-6.569689355,-0.004263399817,0.02664624885,-1.257436483
845.0932276,1646.945837,639.2453383,8.126172253,1.69140625,1.8125,-6.56640625,-22.4375,0.3125,-35.3125,0.015625,0.0234375,-1.2265625,-0.01379394531,0.1006469727,-0.9935302734,0.05023193359,-3.466804004,-6.119579443,3.342305518,-0.02904441125,0.06928024702,-1.212937248
845.1265609,1666.337097,645.1449248,8.121594437,1.19140625,1.54296875,-6.484375,-21.25,0.375,-36.375,0.015625,0.0234375,-1.2265625,-0.01635742188,0.09997558594,-0.9946289063,0.01995849609,2.978386865,3.351882324,0.373495459,0.04849617292,0.06954670951,-1.251307846
845.1598942,1685.298739,650.8534797,8.117016617,1.19140625,1.54296875,-6.484375,-21.25,0.375,-36.375,0.0546875,0.021484375,-1.21484375,0.01916503906,-0.09808349609,0.994934082,0.01043701172,-5.813121631,-4.96078584,-10.50575688,0.0138560494,0.0487626354,-1.245179209
845.1932275,1703.331304,656.19173,8.117016617,1.1171875,1.12109375,-6.37109375,-19.875,-1.375,-35.25,0.078125,0.0546875,-1.181640625,0.01916503906,-0.09808349609,0.994934082,0.01043701172,-0.9097966309,2.135627881,-3.572148877,-0.007194487191,0.105252683,-1.236385947
845.2265608,1721.792406,661.9101382,8.121594437,1.26953125,0.890625,-6.3671875,-19.875,-2.0625,-37,0.078125,0.0546875,-1.181640625,0.02111816406,-0.09558105469,0.9943847656,0.04010009766,2.700659473,1.024718311,-6.598419775,-0.03304134858,0.1260367571,-1.179096512
845.2598941,1740.222654,667.5344997,8.121594437,1.078125,0.77734375,-6.14453125,-19.875,-2.0625,-37,0.072265625,0.052734375,-1.15234375,0.02282714844,-0.09301757813,0.992980957,0.06915283203,-4.78840332,-7.2113354,-9.615113867,0.06475038472,0.07381010933,-1.184159299
845.2932274,1758.455113,673.0682527,8.121594437,1.34765625,0.46875,-6.1796875,-17.3125,-3.4375,-34.8125,0.056640625,0.0546875,-1.130859375,0.02282714844,-0.09301757813,0.992980957,0.06915283203,7.603984473,5.295974072,-4.328716602,-0.08926493366,0.07700765919,-1.110082727
845.3265607,1776.021485,678.3168072,8.117016617,1.8046875,0.31640625,-6.18359375,-16.5625,-2.6875,-35.5625,0.056640625,0.0546875,-1.130859375,0.02416992188,-0.09075927734,0.9907836914,0.09735107422,3.246537451,2.53785376,-7.795520605,-0.02264931153,0.03943644831,-1.127136327
845.359894,1793.148132,683.4741561,8.126172253,2.11328125,0.203125,-6.14453125,-16.5625,-2.6875,-35.5625,0.0234375,0.0234375,-1.13671875,0.02575683594,-0.08905029297,0.9877319336,0.1256103516,1.043871924,3.687070557,-4.252102148,0,0.0418346107,-1.139660064
845.3932273,1811.101948,689.1134704,8.117016617,2.11328125,0.85546875,-5.90625,-15.9375,-4.8125,-34.4375,0.015625,-0.0078125,-1.130859375,0.02575683594,-0.08905029297,0.9877319336,0.1256103516,3.074154932,1.723825195,-11.67412729,0.117243495,0.0674150096,-1.137794826
845.4265606,1828.977613,694.5614488,8.121594437,2.2265625,0.890625,-6.140625,-14,-3.6875,-35.5625,0.015625,-0.0078125,-1.130859375,0.02819824219,-0.087890625,0.9838867188,0.1532592773,-1.28329209,-3.236960645,-7.900865479,0.1207075073,0.01732006176,-1.17030325
845.4598939,1848.814094,700.9720626,8.130750066,1.73046875,0.77734375,-5.90625,-14,-3.6875,-35.5625,0.01171875,-0.025390625,-1.12890625,0.03112792969,-0.08679199219,0.9791259766,0.1811523438,2.298433594,1.08217915,-6.761225488,0.1228392072,0.06022052241,-1.189755011
845.4932272,1867.824605,706.6205194,8.126172253,1.26953125,1.08203125,-6.1015625,-14.4375,-5.875,-35.5,0.025390625,-0.05078125,-1.12109375,0.03112792969,-0.08679199219,0.9791259766,0.1811523438,-1.216254443,-1.513135449,-5.621585498,0.07460949679,0.05995405992,-1.17456665
845.5265605,1884.344367,711.2169474,8.121594437,1.3828125,1.08203125,-5.875,-13,-6.1875,-35.4375,0.025390625,-0.05078125,-1.12109375,0.03442382813,-0.08569335938,0.9736938477,0.208190918,-4.721365674,-4.970362646,-7.929595898,0.1111148577,0.06581623467,-1.158845363
845.5598938,1901.505937,716.5819841,8.126172253,1.23046875,1.3515625,-5.87890625,-13,-6.1875,-35.4375,0.033203125,-0.029296875,-1.11328125,0.03765869141,-0.08416748047,0.9675292969,0.2353515625,7.623138086,5.707776758,-3.371035938,0.1028545206,0.1310995444,-1.107951027
845.5932271,1919.315529,722.1415134,8.121594437,0.80859375,1.54296875,-5.9453125,-11.125,-6.8125,-34.75,0.05859375,-0.0078125,-1.08984375,0.03765869141,-0.08416748047,0.9675292969,0.2353515625,0.2968810059,-0.8810662109,-5.592855078,-0.03970291079,0.08793262122,-1.026413506
845.6265604,1938.172219,728.0877076,8.121594437,1.078125,1.4296875,-5.60546875,-9.9375,-5.375,-35.1875,0.05859375,-0.0078125,-1.08984375,0.1004638672,-0.06585693359,0.9572143555,0.2633056641,0.2585737793,-0.6224924316,-10.22802949,-0.0279785613,0.1470872937,-1.064251179
845.6598938,1953.863356,732.3096266,8.117016617,1.0390625,0.9296875,-5.45703125,-9.9375,-5.375,-35.1875,0.080078125,0.021484375,-1.0625,0.2142944336,-0.02758789063,0.9326782227,0.2888793945,-3.84987627,-5.439626172,-5.640739111,0.0580888225,0.1148453326,-1.014689156
845.6932271,1970.531498,737.5883518,8.117016617,1.15625,0.73828125,-5.6015625,-8.9375,-6.0625,-34.75,0.072265625,0.041015625,-1.04296875,0.2142944336,-0.02758789063,0.9326782227,0.2888793945,0.852335791,5.142745166,-6.895300781,0.04529862305,0.08580092131,-1.088765728
845.7265604,1987.38473,742.7747698,8.117016617,1.421875,0.66015625,-5.56640625,-8.5625,-6.75,-35.0625,0.072265625,0.041015625,-1.04296875,0.2927856445,0.006042480469,0.9045410156,0.3099365234,1.216254443,1.810016455,-4.692635254,0.00559571226,0.04902909789,-1.089032191
845.7598937,2005.305084,748.443392,8.117016617,1.8046875,0.0859375,-5.56640625,-8.5625,-6.75,-35.0625,0.052734375,0.03515625,-1.03515625,0.3497924805,0.03631591797,0.8765869141,0.3284912109,2.173935107,0.8331821777,-10.50575688,0.04476569808,0.07087902195,-1.064784104
845.793227,2023.84647,754.2140223,8.117016617,1.61328125,0.01171875,-5.49609375,-6.3125,-6,-35.0625,0.013671875,-0.009765625,-1.03125,0.3497924805,0.03631591797,0.8765869141,0.3284912109,2.681505859,-1.19710083,-4.232948535,-0.01279019945,0.03090964867,-1.053859142
845.8265603,2038.245517,757.8674947,8.126172253,1.8046875,0.69921875,-5.3359375,-5.9375,-5.625,-35.0625,0.013671875,-0.009765625,-1.03125,0.3931884766,0.06335449219,0.8499145508,0.3450927734,4.87459458,4.213794922,-5.95677373,0.0007993874656,-0.007993874656,-1.012823919
845.8598936,2056.448752,764.123623,8.126172253,1.61328125,0.77734375,-5.30078125,-5.9375,-5.625,-35.0625,0.001953125,-0.021484375,-1.04296875,0.4067993164,0.07995605469,0.8337402344,0.3647460938,-8.772354883,-3.773261816,-5.899312891,0.1065849954,0.03144257365,-1.016287931
845.8932269,2072.927067,768.8423424,8.117016617,1.3828125,1.16015625,-5.3359375,0.375,-5.5,-32.1875,0.009765625,-0.0234375,-1.052734375,0.4067993164,0.07995605469,0.8337402344,0.3647460938,-2.097320654,-3.227383838,-2.030283008,0.1135130201,0.0231822365,-1.04506588
845.9265602,2087.353312,772.8879705,8.121594437,1.23046875,1.54296875,-5.45703125,-1.0625,-5.5,-33.3125,0.009765625,-0.0234375,-1.052734375,0.4051513672,0.09039306641,0.8236694336,0.3864135742,-6.722918262,-2.030283008,-10.01733975,0.05222664776,0.1164441075,-0.9851118202
845.9598935,2102.395029,777.6091893,8.126172253,1,1.50390625,-5.91015625,-1.0625,-5.5,-33.3125,0.033203125,-0.017578125,-1.046875,0.4032592773,0.1013793945,0.8128662109,0.4078979492,0.2873041992,-2.059013428,-8.590395557,0.03304134858,0.1220398198,-1.059454854
845.9932268,2115.684881,781.3695784,8.121594437,0.88671875,1.3125,-6.140625,0.375,-5.4375,-33.625,0.0390625,0.009765625,-0.986328125,0.4032592773,0.1013793945,0.8128662109,0.4078979492,-0.08619125977,-4.587290381,-5.947196924,-0.003464012351,0.01332312443,-0.9832465827
846.0265601,2127.108166,784.550216,8.126172253,0.76953125,1.19921875,-7.06640625,2.9375,-5,-32.25,0.0390625,0.009765625,-0.986328125,0.4009399414,0.1123657227,0.8023681641,0.4276123047,4.865017773,2.154781494,-8.303091357,0.02504747392,0.02637978637,-1.012823919
846.0598934,2138.825455,788.2171463,8.121594437,0.84765625,1.4296875,-7.33203125,2.9375,-5,-32.25,0.04296875,0.005859375,-0.95703125,0.3982543945,0.123046875,0.7917480469,0.4465332031,-2.987963672,-6.799532715,-13.45541333,0.01572128682,0.05089433531,-0.9576661838
846.0932267,2152.054084,792.5603519,8.130750066,1.23046875,1.3515625,-7.7109375,4.375,-5.6875,-32.25,0.0546875,0.044921875,-0.994140625,0.3982543945,0.123046875,0.7917480469,0.4465332031,-2.327164014,-4.903325,-14.32690273,-0.04130168573,0.1199081198,-0.9451424469
846.12656,2165.865182,796.9043589,8.130750066,1.34765625,1.3515625,-7.7890625,7,-4.125,-32.9375,0.0546875,0.044921875,-0.994140625,0.3950195313,0.1342163086,0.7807617188,0.4651489258,6.339845996,3.744531396,-4.242525342,-0.08260337145,0.03330781107,-1.075975529
846.1598933,2180.702414,801.6366839,8.117016617,1.4609375,0.625,-8.1328125,7,-4.125,-32.9375,0.068359375,0.01953125,-1.099609375,0.3913574219,0.1462402344,0.768371582,0.4848632813,10.49618008,12.33492695,-10.64940898,0.05782236002,0.07647473421,-1.176431887
846.1932266,2195.342993,806.0823568,8.121594437,2.03515625,0.27734375,-8.05859375,7.0625,-2.375,-32.25,0.025390625,-0.00390625,-1.2578125,0.3913574219,0.1462402344,0.768371582,0.4848632813,-0.7565677246,4.108450049,-8.331821777,-0.01492189936,0.1191087324,-1.247310909
846.2265599,2209.509759,810.335729,8.126172253,1.57421875,0.2421875,-8.0546875,10.125,-1.1875,-33.6875,0.025390625,-0.00390625,-1.2578125,0.3869628906,0.1586303711,0.7537231445,0.507019043,-3.514688037,-0.7565677246,-12.4019646,0.03890352333,0.01465543687,-1.391467115
846.2598932,2227.701126,816.6220234,8.121594437,1.99609375,-0.10546875,-8.13671875,10.125,-1.1875,-33.6875,-0.0078125,-0.029296875,-1.390625,0.4242553711,0.2012939453,0.7164916992,0.5158691406,11.29105503,-0.1149216797,-12.03804595,0.02851148627,-0.05062787282,-1.377877528
846.2932265,2243.433965,820.9762941,8.121594437,1.765625,0.5859375,-8.13671875,10.875,-0.125,-31.5625,-0.03515625,-0.0625,-1.494140625,0.4242553711,0.2012939453,0.7164916992,0.5158691406,0.6320692383,3.275267871,-7.632714893,0.04929556038,-0.003197549863,-1.62328948
846.3265598,2257.834386,825.1391312,8.121594437,1.5,0.27734375,-8.09375,11.625,-0.4375,-30.875,-0.03515625,-0.0625,-1.494140625,0.4739990234,0.2583618164,0.6662597656,0.514465332,1.31202251,5.975927344,-5.650315918,0.1665390553,-0.05942113495,-1.601173094
846.3598931,2273.935978,830.3689631,8.121594437,0.84765625,0.9296875,-7.75390625,11.625,-0.4375,-30.875,-0.05078125,-0.072265625,-1.5703125,0.4938354492,0.2990722656,0.6273193359,0.522644043,-4.175487695,-0.1244984863,-6.224924316,0.1414915814,0.0559571226,-1.665124091
846.3932264,2290.891347,835.6983812,8.126172253,1.3828125,0.77734375,-8.17578125,12.75,2.4375,-32.6875,-0.052734375,-0.025390625,-1.59375,0.4938354492,0.2990722656,0.6273193359,0.522644043,-1.685517969,1.982398975,-15.29416021,0.1148453326,-0.02344869899,-1.607035268
846.4265597,2306.171995,840.060727,8.126172253,0.42578125,1.16015625,-7.5546875,14.3125,3.1875,-33.0625,-0.052734375,-0.025390625,-1.59375,0.4942016602,0.3278808594,0.5979003906,0.5392456055,0.2873041992,-4.137180469,-12.46900225,0.03464012351,-0.08100459652,-1.691237415
846.459893,2322.221213,845.1039858,8.121594437,0.65625,1.46484375,-8.09375,14.3125,3.1875,-33.0625,-0.02734375,-0.015625,-1.634765625,0.4800415039,0.3471069336,0.575378418,0.5639648438,-4.855440967,-0.6320692383,-7.929595898,-0.0138560494,0.02957733623,-1.623822405
846.4932263,2337.970174,849.8584188,8.121594437,0.46484375,1.23828125,-7.1328125,14.75,4.25,-31.3125,-0.009765625,0.021484375,-1.63671875,0.4800415039,0.3471069336,0.575378418,0.5639648438,0.5937620117,-7.987056738,-3.141192578,-0.05382542269,-0.01012557456,-1.595310919
846.5265596,2354.61571,855.1008289,8.126172253,0.88671875,1.3515625,-7.17578125,17.0625,7.1875,-33.125,-0.009765625,0.021484375,-1.63671875,0.4651489258,0.3662719727,0.5523681641,0.5868530273,-3.888183496,1.704671582,-7.316680273,0.03410719853,0.05009494785,-1.706958702
846.5598929,2368.59529,858.8887007,8.121594437,1.078125,1.3515625,-6.9453125,17.0625,7.1875,-33.125,0.001953125,0.04296875,-1.666015625,0.4489135742,0.3858032227,0.5278930664,0.6090698242,1.953668555,1.024718311,-11.93270107,0.02025114913,0.07327718435,-1.723479376
846.5932262,2384.975739,864.329398,8.117016617,1.4609375,1.3515625,-6.87109375,18.125,7.9375,-31,0.009765625,0.033203125,-1.74609375,0.4489135742,0.3858032227,0.5278930664,0.6090698242,1.905784521,0.2968810059,-8.762778076,0.08686677127,0.06688208463,-1.765047524
846.6265595,2400.269711,868.8009603,8.126172253,1.30859375,1.3125,-6.68359375,20.8125,10.625,-33.125,0.009765625,0.033203125,-1.74609375,0.4318237305,0.4051513672,0.5016479492,0.6306762695,-4.970362646,-1.848323682,-3.76368501,0.1532159309,0.1153782575,-1.781834661
846.6598928,2415.556317,873.4689736,8.117016617,1.65234375,1.3125,-6.79296875,20.8125,10.625,-33.125,0.0234375,0.013671875,-1.787109375,0.4133911133,0.4245605469,0.4730224609,0.6519775391,0.4309562988,-6.30153877,-6.837839941,-0.03330781107,0.02984379872,-1.881758094
846.6932261,2431.856464,878.6260424,8.126172253,1.421875,1.0078125,-6.640625,19.75,12.3125,-31.375,0.02734375,0,-1.853515625,0.4133911133,0.4245605469,0.4730224609,0.6519775391,-7.977479932,-0.8619125977,-0.02873041992,0.07141194693,0.1369617191,-1.917996993
846.7265594,2447.336041,883.2006865,8.130750066,1.4609375,0.96875,-6.6015625,19.8125,13.75,-31.75,0.02734375,0,-1.853515625,0.3941040039,0.4432983398,0.4427490234,0.6724243164,3.323151904,-1.465251416,-11.243171,0.1175099575,0.04902909789,-1.874297144
846.7598927,2461.702503,887.3885816,8.126172253,1.57421875,0.77734375,-6.7109375,19.8125,13.75,-31.75,0.021484375,-0.0234375,-1.892578125,0.3731079102,0.4616088867,0.4100952148,0.6925048828,5.133168359,-10.18972227,-11.48259116,0.1279019945,0.08100459652,-1.871898982
846.793226,2477.255554,892.3567482,8.130750066,1.3828125,0.81640625,-6.60546875,20.625,15.625,-30,0.005859375,-0.025390625,-1.88671875,0.3731079102,0.4616088867,0.4100952148,0.6925048828,-6.818686328,-3.67749375,-9.825803613,-0.002664624885,0.02877794876,-1.894015369
846.8265593,2492.866119,897.1321894,8.126172253,1.26953125,0.890625,-6.5234375,21.8125,18.5,-32.875,0.005859375,-0.025390625,-1.88671875,0.3515014648,0.4782104492,0.3770141602,0.7110595703,0.01915361328,0.6991068848,-1.39821377,0.08899847118,0.02078407411,-1.880159319
846.8598926,2508.504383,901.9109615,8.121594437,1,0.890625,-6.60546875,21.8125,18.5,-32.875,0.001953125,0.00390625,-1.884765625,0.3284301758,0.4942626953,0.3425292969,0.7283325195,-1.043871924,4.96078584,-11.0995189,0.04902909789,0.069813172,-1.912134818
846.8932259,2523.553626,906.3986009,8.126172253,0.88671875,0.85546875,-6.48828125,21.875,19.625,-31.5,-0.01171875,0.001953125,-1.865234375,0.3284301758,0.4942626953,0.3425292969,0.7283325195,-2.212242334,-3.495534424,-8.485050684,0.1076508454,0.03170903614,-1.901742781
846.9265592,2538.179605,910.7898288,8.130750066,1.19140625,0.890625,-6.98828125,22.25,21.375,-30.8125,-0.01171875,0.001953125,-1.865234375,0.3245239258,0.5535888672,0.3009033203,0.7054443359,-2.729389893,0.6033388184,-2.499546533,0.162009193,0.09566003339,-1.870833132
846.9598925,2553.259872,915.4780859,8.130750066,1.078125,1.19921875,-6.6796875,22.25,21.375,-30.8125,-0.017578125,0.009765625,-1.84375,0.3140869141,0.6087646484,0.2618408203,0.6798706055,-0.2489969727,-3.983951562,-4.443638281,0.1358958692,0.1063185329,-1.85564477
846.9932258,2569.120175,920.4593165,8.130750066,0.80859375,1.23828125,-6.98828125,22.6875,22.8125,-31.1875,-0.009765625,0.005859375,-1.876953125,0.3140869141,0.6087646484,0.2618408203,0.6798706055,-1.915361328,-4.405331055,-9.117119922,0.0604869849,0.004529862305,-1.935583517
847.0265591,2583.05907,924.3684264,8.126172253,1.30859375,1.2734375,-6.8671875,22,24.375,-34.4375,-0.009765625,0.005859375,-1.876953125,0.2962646484,0.6536254883,0.2266845703,0.6585083008,6.598419775,3.76368501,-11.71243452,-0.08180398398,0.02398162397,-1.955568203
847.0598924,2595.058726,927.6941075,8.121594437,0.92578125,1.2734375,-6.90625,22,24.375,-34.4375,-0.001953125,0.021484375,-1.921875,0.2717895508,0.6921386719,0.1927490234,0.6402587891,-3.715800977,6.885723975,-4.98951626,-0.1582787182,0.05275957273,-1.985412002
847.0932257,2610.359523,932.9736134,8.130750066,1.078125,1.19921875,-6.8671875,20.5625,27.125,-32,-0.001953125,0.0234375,-1.955078125,0.2717895508,0.6921386719,0.1927490234,0.6402587891,-8.236053711,0.2777273926,-7.153874561,0.05782236002,0.02078407411,-1.93052073
847.126559,2626.927943,938.2555769,8.121594437,1.1171875,1.3125,-6.75390625,19.25,31.0625,-33.1875,-0.001953125,0.0234375,-1.955078125,0.2431030273,0.7251586914,0.1608276367,0.623840332,1.637633936,-1.206677637,-7.431601953,0.04476569808,-0.009326187099,-1.950238954
847.1598923,2641.564076,942.3691721,8.130750066,1.0390625,1.19921875,-6.7109375,19.25,31.0625,-33.1875,0.0078125,0.03515625,-1.955078125,0.2082519531,0.7403564453,0.1303100586,0.6257324219,0.03830722656,1.034295117,-6.617573389,0.001065849954,0.05089433531,-2.005929614
847.1932256,2655.057696,946.2864813,8.117016617,1.15625,1.08203125,-6.6015625,17.4375,31.375,-33.875,0.001953125,0.033203125,-1.970703125,0.2082519531,0.7403564453,0.1303100586,0.6257324219,-2.432508887,1.39821377,-4.903325,0.03890352333,0.01545482434,-2.013124101
847.2265589,2667.71387,950.0092851,8.126172253,1.078125,0.9296875,-6.60546875,15.25,32.375,-32.8125,0.001953125,0.033203125,-1.970703125,0.1715698242,0.7501220703,0.09942626953,0.630859375,2.470816113,0.05746083984,-6.397306836,0.07833997163,0.05542419762,-2.008860701
847.2598922,2679.648177,953.5373752,8.117016617,1.34765625,0.77734375,-6.8671875,15.25,32.375,-32.8125,-0.017578125,0.025390625,-1.9609375,0.1343994141,0.7580566406,0.06866455078,0.6344604492,-1.637633936,-6.10042583,-9.059659082,-0.07167840942,-0.03863706084,-2.022183826
847.2932255,2692.327564,957.5581318,8.126172253,1.1171875,1.046875,-6.6796875,14.1875,35.5625,-33.9375,-0.017578125,0.01953125,-1.97265625,0.1343994141,0.7580566406,0.06866455078,0.6344604492,3.916913916,7.967903125,-5.966350537,-0.1798621798,-0.03863706084,-2.001133289
847.3265588,2704.885639,961.381842,8.121594437,1.34765625,1.046875,-7.171875,11.9375,34.5,-35,-0.017578125,0.01953125,-1.97265625,0.09637451172,0.7639770508,0.03747558594,0.6369018555,5.650315918,1.417367383,-3.888183496,0.06581623467,0.02744563632,-2.055491637
847.3598921,2717.809589,965.4031322,8.126172253,1.0390625,0.96875,-6.83203125,11.9375,34.5,-35,-0.013671875,0.021484375,-2.00390625,0.05786132813,0.7681884766,0.005981445313,0.6375732422,6.675034229,-4.347870215,-1.503558643,0.0836692214,0.03783767337,-2.001399751
847.3932254,2730.07,969.0358709,8.121594437,0.80859375,0.77734375,-7.0625,12,36.25,-34.3125,-0.0234375,0.021484375,-2,0.05786132813,0.7681884766,0.005981445313,0.6375732422,0.5746083984,-4.299986182,-7.489062793,0.06128637237,-0.03357427356,-2.058689187
847.4265587,2745.738198,974.4376939,8.126172253,0.92578125,0.890625,-7.0234375,9.4375,38.75,-34.75,-0.0234375,0.021484375,-2,0.01898193359,0.7704467773,-0.02551269531,0.63671875,-4.213794922,-4.338293408,-4.271255762,0.1153782575,-0.01918529918,-2.103721347
847.459892,2761.885918,979.443642,8.121594437,0.9609375,0.96875,-6.71484375,9.4375,38.75,-34.75,-0.03125,0.0234375,-2.00390625,-0.02001953125,0.7709960938,-0.056640625,0.633972168,-0.2777273926,-1.675941162,-8.848969336,0.09832465827,0.04023583577,-2.117044472
847.4932253,2774.580075,982.6911238,8.121594437,1.26953125,1.16015625,-7.02734375,6.9375,39,-33.3125,-0.044921875,0.037109375,-2.03515625,-0.02001953125,0.7709960938,-0.056640625,0.633972168,-2.212242334,-5.152321973,-6.234501123,-0.1348300192,-0.1087166953,-2.066416599
847.5265586,2788.38649,987.1137785,8.126172253,1.26953125,1.0078125,-6.5625,4.3125,39.25,-35.8125,-0.044921875,0.037109375,-2.03515625,-0.05963134766,0.7697143555,-0.08782958984,0.6295166016,-0.3639186523,0.5267243652,-4.7596729,0.07807350915,-0.03464012351,-2.105853047
847.5598919,2801.399557,990.9479836,8.121594437,1.0390625,1.12109375,-6.71484375,4.3125,39.25,-35.8125,-0.046875,0.037109375,-2.05859375,-0.1063232422,0.7987060547,-0.1042480469,0.5830078125,0.2777273926,-1.091755957,-10.9654436,0.08500153385,-0.02158346157,-2.15221752
847.5932252,2814.520649,994.980332,8.121594437,1.26953125,1.23828125,-6.64453125,2.5625,40.3125,-34.75,-0.048828125,0.017578125,-2.091796875,-0.1063232422,0.7987060547,-0.1042480469,0.5830078125,-3.552995264,0.612915625,-8.236053711,0.1009892832,-0.0373047484,-2.132499296
847.6265585,2830.135914,1000.198832,8.121594437,1.30859375,1.046875,-6.44921875,-0.4375,39.4375,-34.4375,-0.048828125,0.017578125,-2.091796875,-0.1551513672,0.8194580078,-0.1185913086,0.5388183594,-1.331176123,-8.599972363,-7.2113354,0.02184992406,-0.05968759744,-2.131433446
847.6598918,2840.388645,1002.365108,8.107860968,0.9609375,1.12109375,-6.6015625,-0.4375,39.4375,-34.4375,-0.046875,0.0078125,-2.072265625,-0.2016601563,0.8223876953,-0.1376953125,0.5138549805,1.522712256,-4.778826514,-14.31732593,0.03890352333,0.01971822415,-2.123706034
847.6932251,2856.54093,1008.372228,8.121594437,1.078125,1.3515625,-6.5625,-1.125,41.25,-34.4375,-0.029296875,0.009765625,-2.08984375,-0.2016601563,0.8223876953,-0.1376953125,0.5138549805,-0.8331821777,-4.405331055,-6.569689355,0.07887289661,0.03703828591,-2.077608023
847.7265584,2868.027496,1011.034714,8.117016617,1.15625,1.390625,-6.22265625,-6.25,41.0625,-34.5,-0.029296875,0.009765625,-2.08984375,-0.2446289063,0.8109130859,-0.1636962891,0.5057373047,3.131615771,1.455674609,-7.402871533,0.08873200869,0.002931087374,-2.08586836
847.7598917,2883.039153,1016.261471,8.112438794,1.078125,0.77734375,-6.48828125,-6.25,41.0625,-34.5,-0.029296875,0.009765625,-2.08984375,-0.2868041992,0.7973022461,-0.1893310547,0.4962158203,1.618480322,-1.790862842,-7.307103467,0.07114548444,-0.04449923559,-2.179130231
847.793225,2896.540123,1020.106101,8.117016617,0.88671875,0.35546875,-6.18359375,-6.25,41.0625,-34.5,-0.060546875,0.013671875,-2.068359375,-0.2868041992,0.7973022461,-0.1893310547,0.4962158203,-1.877054102,-3.236960645,-4.702212061,0.06688208463,-0.0487626354,-2.088532985
847.8265584,2910.494491,1024.447381,8.117016617,1.30859375,0.39453125,-6.0625,-8.9375,39.9375,-34.8125,-0.060546875,0.013671875,-2.068359375,-0.3278808594,0.7821044922,-0.213684082,0.4849243164,-0.6799532715,-1.561019482,-0.5841852051,0.08739969624,-0.05462481015,-2.122373721
847.8598917,2922.784321,1027.90003,8.117016617,1.15625,0.35546875,-6.328125,-8.9375,39.9375,-34.8125,-0.099609375,0.001953125,-2.06640625,-0.3692626953,0.7645263672,-0.2370605469,0.4722290039,3.371035938,2.853888379,-6.416460449,0.1457549812,-0.06608269716,-2.15221752
847.893225,2940.787225,1034.421432,8.117016617,1.73046875,0.203125,-5.640625,-16.0625,37.125,-31.5625,-0.130859375,-0.029296875,-2.08203125,-0.3692626953,0.7645263672,-0.2370605469,0.4722290039,-2.815581152,0.6607996582,-5.343858105,0.09885758325,-0.08660030878,-2.079473261
847.9265583,2964.641873,1042.7182,8.112438794,1.1171875,0.5859375,-4.53125,-18.3125,36.4375,-35.875,-0.130859375,-0.029296875,-2.08203125,-0.4097290039,0.7451171875,-0.258605957,0.4583129883,4.855440967,4.022258789,-3.303998291,0.07647473421,-0.1446891313,-1.989941864
847.9598916,2985.839317,1048.65137,8.117016617,1.078125,0.81640625,-3.80859375,-20.125,36.0625,-35.5,-0.15234375,-0.0234375,-1.943359375,-0.4478149414,0.7246704102,-0.2779541016,0.4439086914,4.395754248,-1.321599316,-4.137180469,0.1292343069,-0.1009892832,-1.880692244
847.9932249,3003.779864,1053.501499,8.126172253,1,1.16015625,-3.19140625,-20.125,36.0625,-35.5,-0.140625,-0.037109375,-1.78125,-0.4478149414,0.7246704102,-0.2779541016,0.4439086914,0.9672574707,2.652775439,-4.797980127,0.06794793458,-0.1028545206,-1.763715212
848.0265582,3019.042384,1057.658706,8.112438794,0.92578125,1.46484375,-3.04296875,-22.5,32.6875,-34.375,-0.140625,-0.037109375,-1.78125,-0.4825439453,0.703918457,-0.2951660156,0.4295654297,-4.165910889,-3.074154932,-4.280832568,0.05862174748,-0.1060520704,-1.67791429
848.0598915,3032.667858,1061.518171,8.112438794,0.80859375,1.65625,-2.69921875,-22.5,32.6875,-34.375,-0.10546875,-0.029296875,-1.65625,-0.5133056641,0.6834716797,-0.3106689453,0.4157714844,1.331176123,-0.8236053711,-0.239420166,0.09459418344,-0.08073813403,-1.605702956
848.0932248,3045.471709,1065.282239,8.112438794,1.1171875,2.04296875,-2.765625,-25.125,31.5625,-34.75,-0.07421875,-0.01171875,-1.5546875,-0.5133056641,0.6834716797,-0.3106689453,0.4157714844,0.612915625,-2.039859814,-2.42293208,0.08233690896,-0.03650536093,-1.567865283
848.1265581,3058.376401,1069.245886,8.112438794,0.734375,2.1171875,-2.578125,-26.25,30.375,-33.625,-0.07421875,-0.01171875,-1.5546875,-0.5409545898,0.6630859375,-0.3252563477,0.4022827148,2.049436621,-2.547430566,-2.834734766,0.07514242177,-0.03597243595,-1.519635572
848.1598914,3072.351685,1073.709204,8.121594437,0.76953125,2.34765625,-2.62109375,-26.25,30.375,-33.625,-0.029296875,0.005859375,-1.458984375,-0.5656738281,0.6428222656,-0.3391723633,0.3895263672,0.8331821777,-4.261678955,-7.125144141,0.009859112076,0.0138560494,-1.427706014
848.1932247,3085.698044,1077.671196,8.107860968,0.9609375,2.1953125,-2.62109375,-26.625,30.375,-33.3125,0.013671875,0.005859375,-1.37890625,-0.5656738281,0.6428222656,-0.3391723633,0.3895263672,1.043871924,0.4884171387,-6.962338428,0.03543951098,0.05382542269,-1.39093419
848.226558,3097.387213,1080.94744,8.126172253,0.88671875,1.88671875,-2.5390625,-27.4375,27.8125,-34.3125,0.013671875,0.005859375,-1.37890625,-0.5878295898,0.6226196289,-0.352722168,0.3773803711,-1.359906543,1.857900488,-1.024718311,-0.01891883669,0.02051761162,-1.34696788
848.2598913,3110.078657,1085.013785,8.117016617,1,1.58203125,-2.62109375,-27.4375,27.8125,-34.3125,0.04296875,0.01953125,-1.296875,-0.6074829102,0.6028442383,-0.3658447266,0.3657226563,0.5841852051,-3.658340137,-3.82114585,0.00559571226,0.07247779689,-1.251041384
848.2932246,3121.937388,1088.491001,8.112438794,0.84765625,1.54296875,-2.5,-29,25.625,-33.9375,0.0546875,0.044921875,-1.21484375,-0.6074829102,0.6028442383,-0.3658447266,0.3657226563,3.198653418,0.08619125977,-2.317587207,-0.01225727447,0.04130168573,-1.227592685
848.3265579,3134.304078,1092.36677,8.117016617,1.078125,1.2734375,-2.5390625,-29,24.1875,-34.9375,0.0546875,0.044921875,-1.21484375,-0.6249389648,0.5836791992,-0.3783569336,0.3544311523,3.227383838,1.896207715,-1.072602344,-0.0325084236,0.05489127264,-1.194817799
848.3598912,3146.657743,1096.142046,8.117016617,1.078125,1.19921875,-2.4609375,-29,24.1875,-34.9375,0.05078125,0.052734375,-1.142578125,-0.6407470703,0.5651855469,-0.3900146484,0.3433837891,5.133168359,-0.7374141113,-3.150769385,-0.01332312443,0.07434303431,-1.112747352
848.3932245,3158.387993,1099.617802,8.126172253,1.26953125,1.046875,-2.4609375,-29.8125,22.75,-33.5,0.037109375,0.0546875,-1.078125,-0.6407470703,0.5651855469,-0.3900146484,0.3433837891,-2.56658418,-1.024718311,-3.035847705,-0.01305666194,0.06421745974,-1.071179204
848.4265578,3170.928538,1103.599998,8.117016617,1.34765625,0.96875,-2.34375,-30.25,21.625,-35.3125,0.037109375,0.0546875,-1.078125,-0.655090332,0.5474243164,-0.4007568359,0.3324584961,3.926490723,2.786850732,-1.829170068,-0.007194487191,0.08073813403,-1.011491607
848.4598911,3183.147769,1107.277149,8.107860968,1.65234375,0.81640625,-2.3828125,-30.25,21.625,-35.3125,0.025390625,0.044921875,-1.029296875,-0.6683959961,0.5302734375,-0.4105224609,0.3217163086,1.781286035,1.417367383,-3.524264844,0.0418346107,0.04982848536,-0.9979020196
848.4932244,3193.612604,1110.165085,8.117016617,1.421875,0.69921875,-2.421875,-30.9375,21.25,-34.25,0.00390625,0.033203125,-0.990234375,-0.6683959961,0.5302734375,-0.4105224609,0.3217163086,4.548983154,2.173935107,-4.079719629,0.01145788701,0.0002664624885,-0.9811148828
848.5265577,3206.890478,1114.737515,8.117016617,1.73046875,0.77734375,-2.2734375,-30.3125,19.125,-34.1875,0.00390625,0.033203125,-0.990234375,-0.6810302734,0.5135498047,-0.4191894531,0.3109741211,1.493981836,2.882618799,-8.015787158,-0.01705359927,0.01305666194,-0.9848453577
848.559891,3218.176307,1117.826716,8.121594437,1.69140625,0.85546875,-2.34765625,-30.3125,19.125,-34.1875,-0.013671875,0.009765625,-0.9609375,-0.6931152344,0.497253418,-0.4267578125,0.3003540039,-0.105344873,-0.5650315918,-2.250549561,0.02664624885,0.0162542118,-0.9440765969
848.5932243,3231.164049,1122.106389,8.112438794,1.61328125,0.85546875,-2.3828125,-31.4375,17.3125,-34.9375,-0.033203125,-0.00390625,-0.93359375,-0.6931152344,0.497253418,-0.4267578125,0.3003540039,-3.485957617,-0.009576806641,-3.026270898,0.03703828591,0.01945176166,-0.931019935
848.6265576,3242.970543,1125.499754,8.117016617,1.61328125,0.890625,-2.19921875,-31.5,16.5625,-35.25,-0.033203125,-0.00390625,-0.93359375,-0.7048339844,0.4810791016,-0.4334106445,0.2897338867,2.518700146,1.877054102,-3.284844678,0.04449923559,-0.04316692315,-0.9560674089
848.6598909,3255.541967,1129.480487,8.117016617,1.5,0.9296875,-2.31640625,-31.5,16.5625,-35.25,-0.0390625,-0.0234375,-0.9140625,-0.7161865234,0.4649658203,-0.4391479492,0.279296875,2.193088721,2.145204687,-2.940079639,0.09406125846,-0.02904441125,-0.8993108989
848.6932242,3266.571312,1132.574223,8.107860968,1.23046875,1.16015625,-2.19921875,-32.25,17.3125,-36,-0.046875,-0.037109375,-0.888671875,-0.7161865234,0.4649658203,-0.4391479492,0.279296875,0.5171475586,-0.1915361328,-3.79241543,0.07061255947,-0.04556508554,-0.8891853243
848.7265575,3279.066173,1136.660309,8.117016617,1.30859375,1.16015625,-2.1953125,-31.9375,14.75,-36.25,-0.046875,-0.037109375,-0.888671875,-0.7271728516,0.4489135742,-0.4442138672,0.2689819336,1.647210742,0.373495459,-1.28329209,0.06608269716,-0.0162542118,-0.8614732255
848.7598908,3290.073571,1139.756256,8.117016617,1.19140625,1.390625,-2.1953125,-31.9375,14.75,-36.25,-0.03515625,-0.041015625,-0.865234375,-0.737487793,0.4331665039,-0.4487915039,0.258972168,2.470816113,1.101332764,-1.723825195,0.09139663357,-0.002931087374,-0.873197575
848.7932241,3301.955795,1143.548776,8.112438794,1.15625,1.2734375,-2.19921875,-32.75,12.5625,-34.125,-0.03125,-0.03515625,-0.837890625,-0.737487793,0.4331665039,-0.4487915039,0.258972168,-0.9576806641,-4.93205542,-0.7661445312,0.05142726029,-0.01518836185,-0.8572098257
848.8265574,3314.589262,1147.542397,8.117016617,0.88671875,1.3125,-2.078125,-31.625,12.1875,-34.4375,-0.03125,-0.03515625,-0.837890625,-0.7471313477,0.4175415039,-0.4531860352,0.2492675781,3.371035938,-2.968810059,-0.3064578125,0.05942113495,0.03916998582,-0.7927259034
848.8598907,3325.446773,1150.53862,8.117016617,0.9609375,1.3125,-2.08203125,-31.625,12.1875,-34.4375,-0.025390625,-0.01171875,-0.8046875,-0.7557983398,0.4025268555,-0.4575195313,0.2396850586,1.388636963,1.513135449,-2.53785376,0.05995405992,-0.02025114913,-0.8135099775
848.893224,3336.240687,1153.832207,8.117016617,0.9609375,1.4296875,-2.15625,-32.375,12.1875,-33.375,-0.017578125,-0.00390625,-0.775390625,-0.7557983398,0.4025268555,-0.4575195313,0.2396850586,-0.8714894043,0.6320692383,-5.305550879,0.001598774931,0.02344869899,-0.7802021665
848.9265573,3346.613376,1156.933452,8.117016617,1,1.390625,-2.078125,-31.6875,10.4375,-34.0625,-0.017578125,-0.00390625,-0.775390625,-0.7637329102,0.3877563477,-0.4618530273,0.2304077148,-2.059013428,0.1628057129,-1.953668555,0.06101990988,-0.01279019945,-0.7322389185
848.9598906,3359.723108,1161.435515,8.121594437,0.92578125,1.390625,-2.0390625,-31.6875,10.4375,-34.0625,-0.0078125,0.013671875,-0.759765625,-0.7709350586,0.3732910156,-0.4663085938,0.2211303711,0.6320692383,-0.4979939453,-1.589749902,0.02504747392,0.04796324794,-0.7396998682
848.9932239,3370.973129,1164.532431,8.126172253,1,1.3125,-2.00390625,-32.8125,10.375,-33.6875,-0.0078125,0.021484375,-0.732421875,-0.7709350586,0.3732910156,-0.4663085938,0.2211303711,0.03830722656,-1.13963999,-1.244984863,0.0231822365,0.008260337145,-0.7157182442
849.0265572,3381.743133,1167.740478,8.121594437,1,1.19921875,-2,-31.3125,9.75,-34.75,-0.0078125,0.021484375,-0.732421875,-0.7774658203,0.3591308594,-0.470703125,0.212097168,-2.442085693,-3.313575098,-3.581725684,-0.001332312443,-0.01305666194,-0.7234456564
849.0598905,3392.504818,1171.032533,8.112438794,1.078125,1.19921875,-2.0390625,-31.3125,9.75,-34.75,-0.009765625,0.037109375,-0.716796875,-0.7835693359,0.3452758789,-0.4749145508,0.2031860352,-1.781286035,0.5841852051,-2.059013428,-0.01758652424,0.03677182342,-0.709056682
849.0932238,3402.894309,1174.146044,8.117016617,1.1171875,1.16015625,-2.00390625,-31.3125,9,-33,-0.0078125,0.02734375,-0.705078125,-0.7835693359,0.3452758789,-0.4749145508,0.2031860352,-2.106897461,-3.840299463,-2.557007373,0.02691271134,-0.002931087374,-0.6994640324
849.1265571,3414.758276,1178.040829,8.126172253,1.26953125,1.16015625,-1.921875,-31.375,8.25,-34,-0.0078125,0.02734375,-0.705078125,-0.7892456055,0.3316650391,-0.4788818359,0.1943969727,-1.034295117,-0.1149216797,-3.581725684,0.02451454895,-0.009059724611,-0.6909372328
849.1598904,3426.389293,1181.550302,8.117016617,1.30859375,1.08203125,-2.00390625,-31.375,8.25,-34,-0.017578125,0.029296875,-0.6953125,0.8874511719,-0.3554077148,0.1430053711,0.2562255859,3.926490723,2.106897461,-1.656787549,0.01758652424,-0.001332312443,-0.7037274323
849.1932237,3436.891503,1184.556353,8.117016617,1.34765625,1.19921875,-1.8125,-31.4375,6.0625,-32.9375,-0.029296875,0.03125,-0.689453125,0.8874511719,-0.3554077148,0.1430053711,0.2562255859,-3.131615771,-1.455674609,0.2777273926,0.03170903614,-0.007727412168,-0.7058591322
849.226557,3448.40964,1188.261394,8.126172253,1.5390625,1.12109375,-1.8515625,-30.75,6.125,-34,-0.029296875,0.03125,-0.689453125,0.8919067383,-0.3316040039,0.1207885742,0.2827148438,-0.7374141113,-3.399766357,-1.34075293,0.0325084236,-0.01012557456,-0.6936018577
849.2598903,3460.119194,1191.871056,8.112438794,1.61328125,1.2734375,-1.81640625,-30.75,6.125,-34,-0.029296875,0.009765625,-0.689453125,0.895690918,-0.3125610352,0.1100463867,0.2964477539,1.36948335,1.206677637,-2.231395947,0.05489127264,-0.008260337145,-0.7271761313
849.2932236,3469.84563,1194.486193,8.117016617,1.61328125,1.46484375,-1.89453125,-29.25,5.125,-34.625,-0.0234375,-0.009765625,-0.708984375,0.895690918,-0.3125610352,0.1100463867,0.2964477539,2.700659473,2.949656445,-0.239420166,0.05622358508,0.00559571226,-0.7285084437
849.3265569,3479.847436,1197.600092,8.117016617,1.8046875,1.3515625,-1.734375,-29.25,5.125,-34.625,-0.0234375,-0.009765625,-0.708984375,0.8987426758,-0.2955322266,0.1049804688,0.3063964844,-0.8140285645,-1.685517969,-0.1915361328,0.04796324794,0.005062787282,-0.7181164066
849.3598902,3491.803033,1201.607108,8.117016617,1.61328125,1.54296875,-1.89453125,-29.25,5.125,-34.625,-0.017578125,-0.033203125,-0.71875,0.9009399414,-0.2795410156,0.1036376953,0.3153686523,1.723825195,1.972822168,-0.5267243652,0.09006432113,0.04583154803,-0.734104156
849.3932235,3502.247683,1204.522362,8.121594437,1.57421875,1.50390625,-1.65625,-30.4375,3.625,-33.9375,-0.001953125,-0.046875,-0.728515625,0.9009399414,-0.2795410156,0.1036376953,0.3153686523,-0.6703764648,1.723825195,0.8331821777,0.0535589602,0.01252373696,-0.7575528549
849.4265568,3512.93217,1207.832598,8.117016617,1.34765625,1.65625,-1.73828125,-29.625,4.375,-33.5625,-0.001953125,-0.046875,-0.728515625,0.9051513672,-0.2638549805,0.09844970703,0.3184204102,-0.02873041992,-0.6416460449,-1.790862842,0.05915467246,0.05728943504,-0.7271761313
849.4598901,3524.341951,1211.449113,8.121594437,1.34765625,1.54296875,-1.734375,-29.625,4.375,-33.5625,0.017578125,-0.052734375,-0.732421875,0.9100341797,-0.2474365234,0.09155273438,0.3197021484,-2.959233252,-2.959233252,-2.327164014,0.09432772095,0.04369984812,-0.7266432063
849.4932234,3535.414838,1214.769266,8.112438794,1.421875,1.54296875,-1.69921875,-30.0625,2.5625,-33.9375,0.029296875,-0.05859375,-0.728515625,0.9100341797,-0.2474365234,0.09155273438,0.3197021484,-1.08217915,1.637633936,-2.940079639,0.1049862205,0.05222664776,-0.7410321807
849.5265567,3546.144839,1217.986069,8.121594437,1.26953125,1.50390625,-1.73828125,-28.625,2.25,-33.9375,0.029296875,-0.05859375,-0.728515625,0.9145507813,-0.2313842773,0.08508300781,0.3207397461,-0.6799532715,-2.461239307,-3.53384165,0.07620827173,0.05009494785,-0.7125206944
849.55989,3555.2989,1220.503859,8.130750066,1.15625,1.3515625,-1.58203125,-28.625,2.25,-33.9375,0.0390625,-0.048828125,-0.712890625,0.918762207,-0.2151489258,0.07873535156,0.321472168,2.815581152,-3.64876333,-1.848323682,0.08633384629,0.05915467246,-0.6994640324
849.5932233,3566.733381,1224.414654,8.121594437,1.15625,1.046875,-1.51171875,-28.3125,1.1875,-33.5,0.0390625,-0.041015625,-0.697265625,0.918762207,-0.2151489258,0.07873535156,0.321472168,-1.695094775,-1.771709229,-1.838746875,0.05649004757,0.04316692315,-0.6936018577
849.6265566,3577.627908,1227.642467,8.117016617,1.078125,1.12109375,-1.66015625,-27.9375,-0.5625,-32.8125,0.0390625,-0.041015625,-0.697265625,0.9225463867,-0.1994628906,0.07287597656,0.3221435547,1.091755957,-3.687070557,0.2585737793,0.0580888225,0.0628851473,-0.6906707703
849.6598899,3588.086335,1230.758525,8.121594437,1.078125,1.046875,-1.578125,-27.9375,-0.5625,-32.8125,0.029296875,-0.033203125,-0.671875,0.9259033203,-0.1840209961,0.0673828125,0.3229370117,-3.265691064,-2.126051074,0.2968810059,0.08819908371,0.06901378453,-0.6786799583
849.6932232,3599.231798,1234.286463,8.117016617,1.15625,1.046875,-1.69921875,-27.1875,-1.25,-32.8125,0.017578125,-0.025390625,-0.65625,0.9259033203,-0.1840209961,0.0673828125,0.3229370117,1.331176123,1.187524023,0.746990918,0.0210505366,0.01732006176,-0.650701397
849.7265565,3608.542472,1236.800099,8.117016617,1.0390625,1.0078125,-1.43359375,-26.9375,-2,-33.125,0.017578125,-0.025390625,-0.65625,0.9287719727,-0.1689453125,0.06219482422,0.3239746094,-0.6320692383,-1.790862842,0.3543418457,0.09992343321,0.04396631061,-0.652300172
849.7598898,3617.806055,1239.629049,8.126172253,1,1.12109375,-1.54296875,-26.9375,-2,-33.125,0.00390625,-0.017578125,-0.634765625,0.9311523438,-0.1543579102,0.05737304688,0.3252563477,0.9097966309,-1.244984863,1.063025537,0.03170903614,0.007194487191,-0.6187258984
849.7932231,3629.736046,1243.75648,8.126172253,1.078125,1.23828125,-1.54296875,-25.8125,-3.3125,-34.1875,0,0.005859375,-0.615234375,0.9311523438,-0.1543579102,0.05737304688,0.3252563477,0.3926490723,-0.8906430176,-4.347870215,0.03996937328,0.01252373696,-0.6211240608
849.8265564,3640.184959,1246.675583,8.121594437,0.92578125,1.19921875,-1.65625,-26.125,-1.5625,-32.4375,0,0.005859375,-0.615234375,0.9331665039,-0.1400146484,0.05297851563,0.3267211914,1.16837041,-0.1244984863,-2.106897461,0.06421745974,0.03277488609,-0.6006064492
849.8598897,3649.45242,1249.29719,8.121594437,0.88671875,1.3515625,-1.51171875,-26.125,-1.5625,-32.4375,0.001953125,0.017578125,-0.599609375,0.9348754883,-0.1260986328,0.04919433594,0.3281860352,0.09576806641,0.3543418457,-0.9193734375,-0.008526799634,-0.01518836185,-0.6019387616
849.893223,3658.270782,1251.919461,8.117016617,1,1.390625,-1.4296875,-25.4375,-2.9375,-34.1875,0.00390625,0.025390625,-0.591796875,0.9348754883,-0.1260986328,0.04919433594,0.3281860352,2.039859814,0.4118026855,-2.652775439,-0.03650536093,0.005062787282,-0.5976753618
849.9265563,3669.642124,1255.858455,8.117016617,1,1.4296875,-1.5390625,-23.625,-4.4375,-32.75,0.00390625,0.025390625,-0.591796875,0.9362792969,-0.1124267578,0.04583740234,0.3296508789,-1.005564697,-3.936067529,-2.604891406,0.03543951098,0.03224196111,-0.6144624986
849.9598897,3679.886068,1258.780846,8.112438794,1.0390625,1.4296875,-1.390625,-23.625,-4.4375,-32.75,0.0078125,0.0390625,-0.58203125,0.9268798828,-0.1275024414,0.1314697266,0.3275756836,0.3926490723,-1.34075293,-1.25456167,0.03464012351,0.03597243595,-0.6032710741
849.993223,3689.502577,1261.607444,8.121594437,1.26953125,1.39453125,-1.3515625,-23.625,-4.4375,-32.75,0.013671875,0.0390625,-0.58203125,0.9268798828,-0.1275024414,0.1314697266,0.3275756836,-0.2777273926,-1.101332764,-0.009576806641,0.06315160979,0.04902909789,-0.5931454995
850.0265563,3699.935007,1264.944223,8.121594437,1.30859375,1.4296875,-1.4296875,-23.625,-3.6875,-33.4375,0.013671875,0.0390625,-0.58203125,0.9241943359,-0.1201782227,0.1486816406,0.3305664063,-0.8906430176,0.8906430176,-2.940079639,0.01998468664,0.03703828591,-0.5864839373
850.0598896,3709.21025,1267.570486,8.126172253,1.3828125,1.4609375,-1.390625,-23.625,-3.6875,-33.4375,0.01953125,0.037109375,-0.591796875,0.9223022461,-0.1097412109,0.1577758789,0.3352050781,1.120486377,0.6991068848,-2.078167041,-0.04503216056,0.01412251189,-0.5870168623
850.0932229,3717.627347,1269.995319,8.117016617,1.34765625,1.54296875,-1.390625,-22.9375,-5.4375,-33.375,0.02734375,0.02734375,-0.59765625,0.9223022461,-0.1097412109,0.1577758789,0.3352050781,-1.771709229,-0.9289502441,-1.484405029,-0.001065849954,0.04822971043,-0.5758254378
850.1265562,3727.174408,1273.123707,8.121594437,1.3828125,1.390625,-1.390625,-21.0625,-5,-33.75,0.02734375,0.02734375,-0.59765625,0.9201660156,-0.09844970703,0.1647949219,0.3411865234,-0.06703764648,-0.4213794922,1.618480322,0.01705359927,0.05542419762,-0.5960765869
850.1598895,3738.010647,1276.66654,8.121594437,1.42578125,1.3515625,-1.23828125,-21.0625,-5,-33.75,0.029296875,0.021484375,-0.603515625,0.9177856445,-0.08679199219,0.1709594727,0.3477783203,-0.5841852051,-2.375048047,-1.388636963,0.0186523742,0.02451454895,-0.593944887
850.1932228,3748.486397,1279.796876,8.126172253,1.50390625,1.390625,-1.27734375,-21.125,-6.8125,-33.375,0.029296875,0.009765625,-0.609375,0.9177856445,-0.08679199219,0.1709594727,0.3477783203,1.158793604,2.135627881,-2.403778467,0.04982848536,0.06928024702,-0.6296508604
850.2265561,3757.390555,1282.233805,8.126172253,1.46484375,1.23828125,-1.31640625,-20,-5.6875,-33.75,0.029296875,0.009765625,-0.609375,0.914855957,-0.07531738281,0.1773071289,0.3548583984,0.3064578125,4.328716602,-0.1723825195,0.03996937328,0.05302603522,-0.6325819478
850.2598894,3766.712913,1285.163408,8.117016617,1.421875,1.4609375,-1.3515625,-20,-5.6875,-33.75,0.033203125,0,-0.615234375,0.9116821289,-0.06451416016,0.1842651367,0.3615722656,-2.940079639,-4.347870215,-3.409343164,0.02691271134,0.04023583577,-0.6125972612
850.2932227,3776.416452,1288.199694,8.126172253,1.5390625,1.19921875,-1.19921875,-19.625,-6.0625,-33.375,0.025390625,-0.0078125,-0.6171875,0.9116821289,-0.06451416016,0.1842651367,0.3615722656,3.53384165,3.246537451,-2.681505859,0.08526799634,0.03384073605,-0.6323154853
850.326556,3785.648295,1290.937836,8.126172253,1.30859375,1.23828125,-1.3125,-19.6875,-7.125,-32.3125,0.025390625,-0.0078125,-0.6171875,0.9083251953,-0.05444335938,0.1917724609,0.3676757813,-0.718260498,0.9768342773,-3.409343164,0.05489127264,0.07007963449,-0.6243216107
850.3598893,3795.520385,1294.072376,8.126172253,1.23046875,1.35546875,-1.16015625,-19.6875,-7.125,-32.3125,0.025390625,-0.013671875,-0.607421875,0.9052124023,-0.04510498047,0.1995239258,0.3724365234,-1.513135449,-0.09576806641,-3.131615771,0.06341807227,0.05515773513,-0.6400428975
850.3932226,3805.4398,1297.111278,8.117016617,1.3046875,1.16015625,-1.19921875,-18.25,-8.875,-33.6875,0.0234375,-0.015625,-0.60546875,0.9052124023,-0.04510498047,0.1995239258,0.3724365234,-1.158793604,-1.886630908,-2.154781494,0.04023583577,0.04290046066,-0.5966095119
850.4265559,3814.542514,1299.745716,8.121594437,1.23046875,1.19921875,-1.16015625,-16.75,-8.8125,-34.0625,0.0234375,-0.015625,-0.60546875,0.9037475586,-0.03448486328,0.2017822266,0.3759155273,1.206677637,0.9481038574,0.4118026855,0.04689739798,0.03437366102,-0.6109984862
850.4598892,3823.336746,1302.380825,8.126172253,1.23046875,1.19921875,-1.16015625,-16.75,-8.8125,-34.0625,0.01953125,-0.021484375,-0.599609375,0.9044189453,-0.02087402344,0.1958007813,0.3784790039,-0.2585737793,-1.551442676,0.9768342773,0.07567534675,0.05036141034,-0.6256539231
850.4932225,3834.312299,1306.127061,8.130750066,1.38671875,1.23828125,-1.046875,-17.125,-9.1875,-32.625,0.013671875,-0.017578125,-0.591796875,0.9044189453,-0.02087402344,0.1958007813,0.3784790039,-1.331176123,0.5458779785,-1.570596289,0.06475038472,0.04023583577,-0.5947442744
850.5265558,3843.845727,1308.773595,8.121594437,1.23046875,1.27734375,-1.19921875,-16.75,-8.5,-32.625,0.013671875,-0.017578125,-0.591796875,0.9047851563,-0.007629394531,0.1900634766,0.3809814453,0.2873041992,-3.007117285,-3.208230225,0.06688208463,0.03384073605,-0.5846186999
850.5598891,3852.390644,1311.208128,8.121594437,1.19140625,1.234375,-1.125,-16.75,-8.5,-32.625,0.009765625,-0.021484375,-0.583984375,0.9049682617,0.005432128906,0.1842651367,0.3834838867,-0.9097966309,-0.4118026855,0.3447650391,0.04556508554,0.02238284904,-0.5638346258
850.5932224,3862.017926,1314.348608,8.121594437,1.26953125,1.27734375,-1.125,-15.625,-8.8125,-32.25,0.01171875,-0.015625,-0.580078125,0.9049682617,0.005432128906,0.1842651367,0.3834838867,1.685517969,0.3256114258,-1.991975781,0.05622358508,0.02398162397,-0.5787565251
850.6265557,3869.762306,1316.378419,8.121594437,1.23046875,1.27734375,-1.046875,-15.625,-8.5,-32.625,0.01171875,-0.015625,-0.580078125,0.9048461914,0.01824951172,0.1787719727,0.385925293,1.685517969,2.48039292,-2.173935107,0.05649004757,0.01918529918,-0.5835528499
850.659889,3879.309492,1319.626946,8.130750066,1.30859375,1.23828125,-1.16015625,-15.625,-8.5,-32.625,0.013671875,-0.013671875,-0.568359375,0.9046020508,0.03100585938,0.1733398438,0.3881835938,0.07661445313,-0.1436520996,-0.1819593262,0.04822971043,0.01945176166,-0.5718285004
850.6932223,3888.066226,1322.160512,8.126172253,1.30859375,1.35546875,-1.046875,-15.3125,-10.25,-32.625,0.013671875,-0.009765625,-0.5625,0.9046020508,0.03100585938,0.1733398438,0.3881835938,5.085284326,0.8236053711,-2.346317627,0.08420214638,0.03890352333,-0.5744931253
850.7265556,3896.764346,1324.811483,8.121594437,1.23046875,1.31640625,-1.0859375,-13.8125,-8.75,-32.25,0.013671875,-0.009765625,-0.5625,0.9041137695,0.04333496094,0.1680908203,0.3904418945,4.223371729,1.264138477,-3.323151904,0.06688208463,0.01332312443,-0.5883491747
850.7598889,3907.081834,1328.255684,8.121594437,1.26953125,1.3125,-1.0078125,-13.8125,-8.75,-32.25,0.01171875,-0.01171875,-0.5625,0.89453125,0.01354980469,0.2425537109,0.3751831055,0.03830722656,-0.009576806641,0.05746083984,0.05515773513,0.02931087374,-0.569963263
850.7932222,3914.698504,1330.095221,8.121594437,1.26953125,1.3515625,-0.89453125,-13.5,-10.1875,-33.3125,0.013671875,-0.015625,-0.55859375,0.89453125,0.01354980469,0.2425537109,0.3751831055,-1.120486377,-1.522712256,-1.848323682,0.06901378453,0.03597243595,-0.5707626505
850.8265555,3923.987909,1333.24125,8.130750066,1.34765625,1.3125,-1.046875,-11.9375,-9.4375,-31.875,0.013671875,-0.015625,-0.55859375,0.8898925781,0.01336669922,0.2619018555,0.3732299805,0.7565677246,2.56658418,-1.034295117,0.06554977218,0.04263399817,-0.5688974131
850.8598888,3932.87719,1335.88491,8.121594437,1.30859375,1.3125,-0.96875,-11.9375,-9.4375,-31.875,0.009765625,-0.017578125,-0.560546875,0.8861083984,0.01824951172,0.2721557617,0.3746948242,-0.8810662109,1.503558643,-1.503558643,0.04476569808,0.02451454895,-0.557972451
850.8932221,3941.815366,1338.625732,8.126172253,1.23046875,1.31640625,-0.96875,-11.625,-10.5,-33.625,0.017578125,-0.015625,-0.556640625,0.8861083984,0.01824951172,0.2721557617,0.3746948242,1.149216797,3.074154932,-1.177947217,0.07034609698,0.0418346107,-0.5561072136
850.9265554,3950.595991,1341.281269,8.126172253,1.19140625,1.2734375,-0.93359375,-9.375,-8.9375,-32.9375,0.017578125,-0.015625,-0.556640625,0.8826904297,0.02478027344,0.2791137695,0.3773803711,-0.5746083984,-2.116474268,-1.915361328,0.02691271134,0.0210505366,-0.5347902145
850.9598887,3960.759824,1344.634145,8.126172253,1.19140625,1.35546875,-0.96875,-9.375,-8.9375,-32.9375,0.017578125,-0.0078125,-0.544921875,0.8792724609,0.03228759766,0.283996582,0.3809814453,1.982398975,-0.4692635254,-0.2106897461,0.05062787282,0.02877794876,-0.5238652525
850.993222,3969.791248,1347.184246,8.126172253,1.23046875,1.19921875,-0.89453125,-10.875,-10.125,-32.625,0.01171875,-0.009765625,-0.5390625,0.8792724609,0.03228759766,0.283996582,0.3809814453,2.528276953,5.133168359,-1.455674609,0.05275957273,0.03410719853,-0.5502450389
851.0265553,3977.726875,1349.413487,8.117016617,1.23046875,1.2734375,-0.89453125,-9.0625,-10.4375,-32.5,0.01171875,-0.009765625,-0.5390625,0.8760375977,0.04010009766,0.2877197266,0.3848876953,2.097320654,0.8810662109,-2.518700146,0.03916998582,0.04503216056,-0.523065865
851.0598886,3986.532324,1352.264965,8.126172253,1.2265625,1.19921875,-0.81640625,-9.0625,-10.4375,-32.5,0.01171875,-0.001953125,-0.53515625,0.8729858398,0.04827880859,0.2905273438,0.3888549805,-0.8427589844,-2.42293208,0.2202665527,0.04103522324,0.02238284904,-0.5257304899
851.0932219,3994.629148,1354.613245,8.121594437,1.23046875,1.234375,-0.93359375,-9.0625,-11.5,-33.25,0.0078125,-0.001953125,-0.525390625,0.8729858398,0.04827880859,0.2905273438,0.3888549805,1.685517969,1.187524023,-1.589749902,0.04529862305,0.02424808646,-0.5403859268
851.1265552,4002.658006,1357.058576,8.121594437,1.30859375,1.2734375,-0.81640625,-8.3125,-11.0625,-33.625,0.0078125,-0.001953125,-0.525390625,0.8699951172,0.05578613281,0.2935180664,0.3922119141,-0.5363011719,-5.209782812,0.2298433594,0.04529862305,0.03837059835,-0.5422511642
851.1598885,4010.218653,1359.289727,8.121594437,1.26953125,1.31640625,-0.81640625,-8.3125,-11.0625,-33.625,0.005859375,-0.005859375,-0.5234375,0.868347168,0.06549072266,0.2917480469,0.3956298828,2.738966699,5.257666846,0.01915361328,0.05862174748,0.02851148627,-0.5238652525
851.1932218,4018.712866,1362.058414,8.126172253,1.30859375,1.31640625,-0.85546875,-7.5625,-11.0625,-33.625,0.01171875,-0.00390625,-0.525390625,0.868347168,0.06549072266,0.2917480469,0.3956298828,1.829170068,1.235408057,-1.877054102,0.04796324794,0.01572128682,-0.5417182392
851.2265551,4027.9427,1365.009904,8.117016617,1.26953125,1.3125,-0.77734375,-6.8125,-10,-32.1875,0.01171875,-0.00390625,-0.525390625,0.8674926758,0.07678222656,0.2865600586,0.399230957,-0.8619125977,-1.379060156,0.3256114258,0.04210107319,0.03410719853,-0.5326585146
851.2598884,4037.676421,1368.069738,8.117016617,1.26953125,1.27734375,-0.77734375,-6.8125,-10,-32.1875,0.01171875,-0.0078125,-0.521484375,0.8665161133,0.08801269531,0.2813720703,0.4027709961,0.2298433594,-2.135627881,-2.4516625,0.0466309355,0.02957733623,-0.5331914396
851.2932217,4044.227525,1369.497971,8.130750066,1.23046875,1.234375,-0.73828125,-6.4375,-10,-31.125,0.009765625,-0.005859375,-0.513671875,0.8665161133,0.08801269531,0.2813720703,0.4027709961,1.810016455,3.361459131,-3.629609717,0.04929556038,0.01705359927,-0.5196018527
851.326555,4051.475549,1371.850377,8.117016617,1.15625,1.2734375,-0.85546875,-5.3125,-11.375,-31.8125,0.009765625,-0.005859375,-0.513671875,0.8654174805,0.09906005859,0.2762451172,0.4061279297,1.05344873,-1.359906543,-1.321599316,0.05089433531,0.02957733623,-0.5249311024
851.3598883,4060.880222,1375.11643,8.126172253,1.26953125,1.23828125,-0.703125,-5.3125,-11.375,-31.8125,0.009765625,-0.00390625,-0.5078125,0.8641357422,0.1098022461,0.2713012695,0.4094238281,-0.5267243652,0.9289502441,-0.9289502441,0.05835528499,0.03197549863,-0.4924226788
851.3932216,4068.800252,1377.265994,8.121594437,1.15625,1.27734375,-0.73828125,-5.3125,-10.3125,-32.5625,0.01171875,0.001953125,-0.501953125,0.8641357422,0.1098022461,0.2713012695,0.4094238281,-2.135627881,-2.489969727,-0.8810662109,0.03277488609,0.01998468664,-0.4873598916
851.4265549,4076.131862,1379.404693,8.117016617,1.15625,1.27734375,-0.703125,-4.5625,-10.3125,-33.625,0.01171875,0.001953125,-0.501953125,0.8612060547,0.1166381836,0.2734375,0.4122924805,0.9768342773,0.1244984863,-0.9576806641,0.02931087374,0.02904441125,-0.488159279
851.4598882,4084.085773,1381.952372,8.121594437,1.19140625,1.31640625,-0.703125,-4.5625,-10.3125,-33.625,0,0.001953125,-0.494140625,0.8576660156,0.1159057617,0.2861328125,0.4112548828,0.5171475586,-0.7278373047,-0.5458779785,0.04156814821,0.03357427356,-0.4942879163
851.4932215,4092.30355,1384.512092,8.126172253,1.23046875,1.31640625,-0.703125,-4.25,-10.625,-32.875,0.005859375,0.009765625,-0.490234375,0.8576660156,0.1159057617,0.2861328125,0.4112548828,0.7374141113,0.03830722656,0.9385270508,0.02478101144,0.01252373696,-0.4974854661
851.5265548,4100.600585,1387.06098,8.121594437,1.23046875,1.4296875,-0.6640625,-2,-9.875,-31.8125,0.005859375,0.009765625,-0.490234375,0.8519897461,0.1011962891,0.3186645508,0.4028930664,0.718260498,1.292868896,0.6799532715,0.0442327731,0.01332312443,-0.4937549913
851.5598881,4107.908711,1389.116697,8.117016617,1.23046875,1.4296875,-0.625,-2,-9.875,-31.8125,0.0078125,0.00390625,-0.494140625,0.8474731445,0.09869384766,0.3338012695,0.4008178711,2.585737793,2.327164014,0.2489969727,0.02184992406,0.04476569808,-0.4838958792
851.5932214,4116.930178,1392.18375,8.121594437,1.19140625,1.4296875,-0.625,-2.3125,-8.75,-32.5625,0.0078125,0.005859375,-0.490234375,0.8474731445,0.09869384766,0.3338012695,0.4008178711,-0.6320692383,-1.446097803,-3.169922998,0.01572128682,0.03330781107,-0.4969525411
851.6265547,4124.045403,1394.012748,8.121594437,1.23046875,1.35546875,-0.625,-1.625,-10.25,-32.1875,0.0078125,0.005859375,-0.490234375,0.8432006836,0.1002807617,0.3432617188,0.4014282227,-2.738966699,-3.275267871,-0.8714894043,0.03197549863,0.02984379872,-0.4812312543
851.659888,4132.149486,1396.672016,8.126172253,1.30859375,1.39453125,-0.625,-1.625,-10.25,-32.1875,0.013671875,0.005859375,-0.494140625,0.8388061523,0.1041259766,0.3498535156,0.4039306641,-3.801992236,-2.604891406,-1.522712256,0.03543951098,0.03224196111,-0.4857611166
851.6932213,4138.965193,1398.525218,8.126172253,1.23046875,1.35546875,-0.703125,-0.875,-10.875,-32.1875,0.013671875,0.001953125,-0.490234375,0.8388061523,0.1041259766,0.3498535156,0.4039306641,-3.380612744,-3.093308545,-0.4884171387,0.03464012351,0.02851148627,-0.4820306418
851.7265546,4148.205374,1401.787919,8.121594437,1.26953125,1.27734375,-0.5859375,0.25,-9.4375,-32.5,0.013671875,0.001953125,-0.490234375,0.8342895508,0.1090087891,0.3549194336,0.4075317383,-0.06703764648,-1.36948335,0.2968810059,0.03970291079,0.03090964867,-0.4753690796
851.7598879,4155.881584,1403.846876,8.121594437,1.23046875,1.2734375,-0.5859375,0.25,-9.4375,-32.5,0.015625,0.005859375,-0.48828125,0.830078125,0.1141967773,0.3591308594,0.4111328125,1.877054102,1.455674609,-1.656787549,0.01039203705,0.04609801052,-0.4900245164
851.7932212,4163.982883,1406.400371,8.117016617,1.23046875,1.27734375,-0.546875,-0.125,-9.4375,-31.8125,0.01171875,0,-0.478515625,0.830078125,0.1141967773,0.3591308594,0.4111328125,0.03830722656,1.647210742,-3.926490723,0.02957733623,0.03277488609,-0.4873598916
851.8265545,4171.82452,1408.749622,8.126172253,1.1171875,1.3125,-0.625,0.6875,-9.0625,-31.8125,0.01171875,0,-0.478515625,0.8260498047,0.1190185547,0.3630371094,0.4143676758,-1.963245361,-4.050989209,-0.8140285645,0.04529862305,0.01572128682,-0.4793660169
851.8598878,4178.122473,1410.40038,8.121594437,1.23046875,1.23828125,-0.47265625,0.6875,-9.0625,-31.8125,0.009765625,0.01171875,-0.47265625,0.8222045898,0.1236572266,0.3668823242,0.4172363281,2.106897461,1.618480322,-0.8427589844,0.03011026121,0.02984379872,-0.4631118051
851.8932211,4185.901907,1413.051847,8.121594437,1.265625,1.19921875,-0.5859375,2,-10.125,-32.1875,0.0078125,0.01171875,-0.466796875,0.8222045898,0.1236572266,0.3668823242,0.4172363281,2.116474268,0.746990918,-2.212242334,0.04103522324,0.009326187099,-0.4655099675
851.9265544,4194.274789,1415.716028,8.121594437,1.26953125,1.31640625,-0.546875,2.0625,-7.9375,-32.875,0.0078125,0.01171875,-0.466796875,0.8193359375,0.1300048828,0.3674316406,0.4204711914,-1.532289062,-2.317587207,0.1915361328,0.01705359927,0.01358958692,-0.4636447301
851.9598877,4202.226488,1418.067285,8.126172253,1.23046875,1.23828125,-0.51171875,2.0625,-7.9375,-32.875,0.001953125,0.009765625,-0.4609375,0.8176879883,0.1395263672,0.3628540039,0.4245605469,-1.19710083,-1.024718311,-2.221819141,0.03117611116,0.02504747392,-0.4599142552
851.993221,4208.998112,1419.924754,8.121594437,1.26953125,1.2734375,-0.47265625,2.375,-10.75,-32.9375,-0.001953125,0.009765625,-0.462890625,0.8176879883,0.1395263672,0.3628540039,0.4245605469,1.532289062,2.738966699,1.39821377,0.04369984812,0.005329249771,-0.4676416674
852.0265543,4216.342192,1422.276949,8.126172253,1.30859375,1.35546875,-0.47265625,2.8125,-8.625,-32.1875,-0.001953125,0.009765625,-0.462890625,0.8158569336,0.1487426758,0.3584594727,0.4286499023,-0.3064578125,-0.8619125977,-1.28329209,0.05382542269,0.01012557456,-0.4804318669
852.0598876,4222.660354,1424.026556,8.126172253,1.30859375,1.4296875,-0.47265625,2.8125,-8.625,-32.1875,-0.00390625,0.00390625,-0.466796875,0.8138427734,0.1578979492,0.3541259766,0.432800293,1.359906543,0.8906430176,0.3447650391,0.02717917383,0.009592649588,-0.4740367671
852.0932209,4230.260116,1426.584823,8.126172253,1.30859375,1.3515625,-0.43359375,3.5,-8.9375,-32.5625,0.001953125,0.00390625,-0.46484375,0.8138427734,0.1578979492,0.3541259766,0.432800293,0.9385270508,-0.2489969727,0.9768342773,0.04316692315,0.02078407411,-0.4785666294
852.1265543,4238.576521,1429.252506,8.121594437,1.26953125,1.390625,-0.47265625,4.3125,-7.125,-32.25,0.001953125,0.00390625,-0.46484375,0.8118286133,0.1669311523,0.3497924805,0.436706543,2.298433594,2.442085693,0.8906430176,0.04822971043,0.01891883669,-0.4798989419
852.1598876,4246.118839,1431.413917,8.126172253,1.26953125,1.43359375,-0.43359375,4.3125,-7.125,-32.25,0.005859375,-0.001953125,-0.46484375,0.809753418,0.1759643555,0.3453369141,0.440612793,-2.42293208,-2.212242334,-1.924938135,0.05675651006,0.01998468664,-0.4868269666
852.1932209,4252.464612,1433.140154,8.126172253,1.26953125,1.43359375,-0.43359375,5.8125,-7.125,-30.8125,0.013671875,-0.00390625,-0.46484375,0.809753418,0.1759643555,0.3453369141,0.440612793,-2.968810059,-3.323151904,-3.485957617,0.03890352333,0.03144257365,-0.4585819428
852.2265542,4259.506833,1435.423903,8.130750066,1.23046875,1.4609375,-0.43359375,5.8125,-6.375,-31.1875,0.013671875,-0.00390625,-0.46484375,0.8076171875,0.1848144531,0.3409423828,0.4442749023,-0.06703764648,-0.5363011719,-0.9481038574,0.03623889844,0.03837059835,-0.4577825553
852.2598875,4266.539484,1437.574099,8.121594437,1.30859375,1.4296875,-0.3203125,5.8125,-6.375,-31.1875,0.013671875,-0.001953125,-0.462890625,0.8010253906,0.1480102539,0.3912963867,0.4281616211,0.2873041992,0.7565677246,0.2777273926,0.03330781107,0.01758652424,-0.46577643
852.2932208,4274.021987,1439.942815,8.121594437,1.23046875,1.390625,-0.43359375,7,-6,-29.375,0.01953125,-0.00390625,-0.4609375,0.8010253906,0.1480102539,0.3912963867,0.4281616211,-1.685517969,-1.273715283,0.3639186523,0.03703828591,0.04290046066,-0.4601807177
852.3265541,4281.227042,1442.093908,8.126172253,1.23046875,1.43359375,-0.35546875,6.5625,-6.375,-31.1875,0.01953125,-0.00390625,-0.4609375,0.7963256836,0.1413574219,0.4061279297,0.4252929688,1.264138477,0.7086836914,-0.2968810059,0.05275957273,0.03384073605,-0.4687075174
852.3598874,4287.277794,1443.737966,8.126172253,1.23046875,1.39453125,-0.35546875,6.5625,-6.375,-31.1875,0.021484375,-0.00390625,-0.458984375,0.7922363281,0.1408081055,0.4139404297,0.4257202148,-0.3543418457,-0.4501099121,-0.9481038574,0.04796324794,0.03703828591,-0.4695069048
852.3932207,4294.589172,1446.204546,8.121594437,1.26953125,1.46484375,-0.39453125,7.375,-5.625,-30.8125,0.029296875,0,-0.45703125,0.7922363281,0.1408081055,0.4139404297,0.4257202148,0.0478840332,-0.6416460449,-1.474828223,0.04130168573,0.04369984812,-0.4559173179
852.426554,4301.533002,1448.260481,8.135327876,1.19140625,1.46484375,-0.3203125,7.6875,-7.0625,-29.375,0.029296875,0,-0.45703125,0.7880859375,0.1426391602,0.4190063477,0.4277954102,-0.7852981445,-0.08619125977,-0.4213794922,0.04343338563,0.04796324794,-0.4559173179
852.4598873,4308.763216,1450.522483,8.130750066,1.19140625,1.43359375,-0.35546875,7.6875,-7.0625,-29.375,0.03125,0,-0.453125,0.7841186523,0.1459960938,0.4223022461,0.4307250977,-1.216254443,-0.6991068848,-0.07661445313,0.02291577402,0.05755589753,-0.453785618
852.4932206,4315.679076,1452.57928,8.130750066,1.23046875,1.50390625,-0.3203125,8.0625,-5.625,-32.25,0.03125,0.001953125,-0.453125,0.7841186523,0.1459960938,0.4223022461,0.4307250977,0.507570752,-0.3543418457,-0.2585737793,0.03970291079,0.05489127264,-0.4425941935
852.5265539,4322.475978,1454.636487,8.126172253,1.15625,1.390625,-0.3203125,9.25,-5.25,-30.8125,0.03125,0.001953125,-0.453125,0.7801513672,0.1501464844,0.4245605469,0.4342041016,0.6991068848,0.3639186523,-1.302445703,0.02824502379,0.05675651006,-0.4420612685
852.5598872,4328.604208,1456.391952,8.130750066,1.19140625,1.4609375,-0.28125,9.25,-5.25,-30.8125,0.037109375,0.00390625,-0.451171875,0.7763061523,0.1549682617,0.4261474609,0.4378662109,-0.1819593262,-0.2968810059,0.105344873,0.03197549863,0.05728943504,-0.430869844
852.5932205,4336.579461,1459.163791,8.121594437,1.15625,1.50390625,-0.28125,9.625,-5.5625,-30.8125,0.04296875,0.005859375,-0.443359375,0.7763061523,0.1549682617,0.4261474609,0.4378662109,-0.6033388184,0.5841852051,-0.7565677246,0.03384073605,0.05036141034,-0.4399295686
852.6265538,4343.358983,1461.016443,8.130750066,1.1171875,1.43359375,-0.2421875,10.3125,-4.8125,-30.4375,0.04296875,0.005859375,-0.443359375,0.7723999023,0.1597900391,0.4275512695,0.4415893555,-0.2489969727,0.08619125977,-1.350329736,0.0210505366,0.05702297255,-0.4306033815
852.6598871,4349.456534,1462.759894,8.126172253,1.1171875,1.43359375,-0.2421875,10.3125,-4.8125,-30.4375,0.04296875,0.01171875,-0.439453125,0.7686157227,0.1647949219,0.4287109375,0.4452514648,1.39821377,-0.105344873,-0.3351882324,0.0186523742,0.07247779689,-0.4247412067
852.6932204,4354.470487,1464.104939,8.135327876,1.15625,1.39453125,-0.2421875,9.5625,-5.5625,-31.875,0.044921875,0.017578125,-0.431640625,0.7686157227,0.1647949219,0.4287109375,0.4452514648,0.2873041992,-0.5841852051,0.0478840332,0.006661562214,0.0604869849,-0.4306033815
852.7265537,4362.652234,1467.1811,8.126172253,1.19140625,1.390625,-0.2421875,11.5,-4,-31.5,0.044921875,0.017578125,-0.431640625,0.7646484375,0.1696166992,0.4299926758,0.4490356445,-0.03830722656,0.5746083984,-0.4118026855,0.02824502379,0.05702297255,-0.4306033815
852.759887,4369.117689,1468.842432,8.130750066,1.15625,1.39453125,-0.203125,11.5,-4,-31.5,0.0390625,0.021484375,-0.427734375,0.760559082,0.1742553711,0.4315185547,0.4527587891,-0.1436520996,0.2777273926,-0.1915361328,0.01785298673,0.06501684721,-0.4148820947
852.7932203,4374.901159,1470.490767,8.126172253,1.23046875,1.4296875,-0.203125,10.6875,-4.4375,-31.1875,0.046875,0.0234375,-0.42578125,0.760559082,0.1742553711,0.4315185547,0.4527587891,0.4692635254,-0.6799532715,-0.507570752,0.02451454895,0.06821439707,-0.4058223701
852.8265536,4380.624602,1472.235725,8.121594437,1.15625,1.3515625,-0.1640625,11.5,-2.625,-31.5,0.046875,0.0234375,-0.42578125,0.756652832,0.1782836914,0.4333496094,0.4559326172,1.455674609,0.1149216797,-0.8810662109,0.01305666194,0.05915467246,-0.4098193074
852.8598869,4386.781031,1474.200486,8.126172253,1.23046875,1.390625,-0.2421875,11.5,-2.625,-31.5,0.04296875,0.02734375,-0.419921875,0.7526855469,0.1817016602,0.4357910156,0.4588623047,-0.2489969727,-0.8714894043,0.9768342773,0.0279785613,0.06421745974,-0.4098193074
852.8932202,4393.50255,1476.358375,8.126172253,1.19140625,1.2734375,-0.1640625,12.25,-3.625,-32.25,0.041015625,0.02734375,-0.412109375,0.7526855469,0.1817016602,0.4357910156,0.4588623047,-0.3830722656,-2.145204687,-0.3543418457,0.01145788701,0.05489127264,-0.3943644831
852.9265535,4400.269873,1478.43383,8.121594437,1.15625,1.27734375,-0.1640625,13.75,-2.5625,-30.125,0.041015625,0.02734375,-0.412109375,0.7489624023,0.184387207,0.4385986328,0.4611816406,1.19710083,-0.1244984863,-0.7948749512,0.002664624885,0.05302603522,-0.4042235951
852.9598868,4407.398289,1480.675382,8.126172253,1.19140625,1.35546875,-0.1640625,13.75,-2.5625,-30.125,0.0390625,0.033203125,-0.404296875,0.7453613281,0.1862182617,0.4420166016,0.4630126953,0.4501099121,-0.3160346191,-0.3160346191,0.002931087374,0.05169372278,-0.40688822
852.9932201,4411.990539,1481.623938,8.126172253,1.30859375,1.31640625,-0.12890625,13.6875,-3.9375,-31.5,0.033203125,0.03125,-0.40234375,0.7453613281,0.1862182617,0.4420166016,0.4630126953,-0.2298433594,0.06703764648,-0.009576806641,-0.001598774931,0.0442327731,-0.3994272703
853.0265534,4419.826517,1484.608631,8.126172253,1.23046875,1.23828125,-0.12890625,14.5,-2.5625,-30.4375,0.033203125,0.03125,-0.40234375,0.7419433594,0.1873168945,0.4458618164,0.4644165039,-0.2777273926,-1.149216797,-0.373495459,0.006928024702,0.05462481015,-0.3978284954
853.0598867,4426.569402,1486.46585,8.121594437,1.30859375,1.31640625,-0.12890625,14.5,-2.5625,-30.4375,0.02734375,0.03125,-0.400390625,0.7385864258,0.1876220703,0.4502563477,0.4653930664,0.9672574707,0.7086836914,-0.1819593262,0.002931087374,0.04556508554,-0.3914333957
853.09322,4431.615133,1487.704183,8.126172253,1.26953125,1.31640625,-0.08984375,14.125,-2.125,-31.875,0.021484375,0.02734375,-0.396484375,0.7385864258,0.1876220703,0.4502563477,0.4653930664,-1.130063184,-0.2681505859,-0.03830722656,0.009859112076,0.04076876075,-0.3919663207
853.1265533,4437.522196,1489.672059,8.130750066,1.23046875,1.3125,-0.08984375,13.8125,-1.125,-31.5625,0.021484375,0.02734375,-0.396484375,0.7354736328,0.1868896484,0.455078125,0.4658203125,0.8810662109,1.800439648,-0.9289502441,0.007460949679,0.03783767337,-0.3924992456
853.1598866,4444.157549,1491.833035,8.126172253,1.26953125,1.31640625,-0.12890625,13.8125,-1.125,-31.5625,0.015625,0.029296875,-0.396484375,0.732421875,0.1857910156,0.4602050781,0.4661254883,1.350329736,0.8810662109,-1.953668555,0.003197549863,0.03570597347,-0.3909004707
853.1932199,4449.790579,1493.374866,8.121594437,1.23046875,1.2734375,-0.05078125,14.875,-1.75,-30.8125,0.015625,0.03125,-0.388671875,0.732421875,0.1857910156,0.4602050781,0.4661254883,0.4692635254,-0.2681505859,-0.9672574707,0.005862174748,0.03810413586,-0.3874364584
853.2265532,4454.444373,1494.62788,8.126172253,1.30859375,1.3515625,-0.05078125,16.8125,-0.3125,-31.25,0.015625,0.03125,-0.388671875,0.7297973633,0.1879272461,0.4616699219,0.4678955078,-0.478840332,-1.024718311,0.2873041992,0.002931087374,0.03890352333,-0.385038296
853.2598865,4460.833421,1496.900096,8.117016617,1.23046875,1.3125,-0.08984375,16.8125,-0.3125,-31.25,0.015625,0.025390625,-0.388671875,0.7278442383,0.1951904297,0.4576416016,0.471862793,0.8906430176,0.4213794922,-0.2968810059,0.004529862305,0.03011026121,-0.3794425837
853.2932198,4466.376783,1498.442648,8.126172253,1.23046875,1.3515625,-0.01171875,17.0625,-1.6875,-31.1875,0.01171875,0.0234375,-0.3828125,0.7278442383,0.1951904297,0.4576416016,0.471862793,-0.1915361328,-0.9002198242,-0.3639186523,0.007727412168,0.02264931153,-0.3751791839
853.3265531,4472.481851,1500.412691,8.126172253,1.26953125,1.2734375,-0.08984375,16.4375,0.0625,-30.875,0.01171875,0.0234375,-0.3828125,0.725769043,0.2020874023,0.4540405273,0.4757080078,-0.5937620117,-1.790862842,-0.4405331055,0.01012557456,0.02211638655,-0.3810413586
853.3598864,4478.773855,1502.369117,8.121594437,1.26953125,1.31640625,-0.01171875,16.4375,0.0625,-30.875,0.009765625,0.0234375,-0.3828125,0.7235717773,0.2086181641,0.4506225586,0.4794921875,0.07661445313,-0.8906430176,0.2202665527,0.01358958692,0.01998468664,-0.3746462589
853.3932197,4484.083706,1503.816088,8.121594437,1.26953125,1.35546875,-0.01171875,15.6875,0.4375,-30.875,0.005859375,0.01953125,-0.380859375,0.7235717773,0.2086181641,0.4506225586,0.4794921875,-0.2202665527,-0.4596867188,-0.507570752,0.02264931153,0.03037672369,-0.3802419712
853.426553,4489.248155,1505.373691,8.126172253,1.26953125,1.3515625,-0.05078125,17.1875,1.4375,-31.25,0.005859375,0.01953125,-0.380859375,0.7213745117,0.2149047852,0.447265625,0.4831542969,-0.3830722656,-0.8140285645,-0.134075293,0.01252373696,0.02291577402,-0.3789096587
853.4598863,4495.612296,1507.537808,8.126172253,1.26953125,1.3515625,0.02734375,17.1875,1.4375,-31.25,0.005859375,0.017578125,-0.376953125,0.7190551758,0.2210693359,0.4439086914,0.4868164063,0.3256114258,-0.08619125977,0.478840332,0.01492189936,0.02957733623,-0.3727810215
853.4932196,4500.326329,1508.682354,8.126172253,1.26953125,1.3125,0.1015625,16.4375,0.75,-31.25,0,0.017578125,-0.380859375,0.7190551758,0.2210693359,0.4439086914,0.4868164063,0.8044517578,0.7757213379,0.4118026855,0.01732006176,0.02344869899,-0.3831730585
853.5265529,4507.376842,1511.260874,8.117016617,1.23046875,1.39453125,-0.08984375,17.5625,1.4375,-30.875,0,0.017578125,-0.380859375,0.716796875,0.2269897461,0.4406738281,0.4903564453,0.6895300781,0,-0.009576806641,0.02611332388,0.03517304849,-0.3717151715
853.5598862,4513.209508,1512.819682,8.130750066,1.23046875,1.3515625,-0.01171875,17.5625,1.4375,-30.875,0.0078125,0.017578125,-0.373046875,0.7144165039,0.1827392578,0.4815673828,0.4736328125,-0.3064578125,-0.7278373047,-2.518700146,0.02691271134,0.01652067429,-0.373047484
853.5932195,4517.492592,1513.854274,8.121594437,1.30859375,1.3515625,0.1015625,17.625,3.25,-31.3125,0.00390625,0.013671875,-0.37109375,0.7144165039,0.1827392578,0.4815673828,0.4736328125,1.388636963,-0.2681505859,-2.250549561,0.009859112076,0.01572128682,-0.3770444213
853.6265528,4523.724227,1516.116409,8.130750066,1.26953125,1.4296875,-0.12890625,18.75,2.9375,-31.5625,0.00390625,0.013671875,-0.37109375,0.7113037109,0.1701660156,0.4947509766,0.4693603516,0.5650315918,-0.4022258789,1.551442676,0.02131699908,0.01971822415,-0.3687840842
853.6598861,4529.247404,1517.675985,8.126172253,1.26953125,1.39453125,0.1015625,18.75,2.9375,-31.5625,0.0078125,0.01171875,-0.37109375,0.7083129883,0.1642456055,0.5020751953,0.4682006836,0.5363011719,-0.4118026855,0.3926490723,0.02504747392,0.03863706084,-0.3655865343
853.6932194,4535.358413,1519.649914,8.121594437,1.23046875,1.4296875,0.0625,18.75,3.25,-30.5625,0.005859375,0.013671875,-0.37109375,0.7083129883,0.1642456055,0.5020751953,0.4682006836,1.206677637,0.5937620117,-0.07661445313,0.02637978637,0.0138560494,-0.3661194593
853.7265527,4541.236809,1521.402726,8.126172253,1.26953125,1.46484375,0.02734375,18.8125,4.375,-31.3125,0.005859375,0.013671875,-0.37109375,0.7055664063,0.1614990234,0.5065307617,0.4685668945,-0.08619125977,-0.373495459,0.105344873,0.02478101144,0.0231822365,-0.3629219094
853.759886,4545.572807,1522.452649,8.117016617,1.26953125,1.46484375,0.0625,18.8125,4.375,-31.3125,0.015625,0.009765625,-0.369140625,0.7026367188,0.1606445313,0.5095214844,0.469909668,-0.6607996582,-0.5937620117,0.09576806641,0.02957733623,0.03357427356,-0.3661194593
853.7932193,4550.974636,1524.302237,8.121594437,1.19140625,1.4609375,0.02734375,19.5,4.8125,-31.3125,0.013671875,0.009765625,-0.365234375,0.7026367188,0.1606445313,0.5095214844,0.469909668,-0.5171475586,-0.2968810059,0.4022258789,0.02478101144,0.04076876075,-0.3557274222
853.8265526,4555.329955,1525.448825,8.130750066,1.23046875,1.46484375,0.140625,20.25,4.0625,-31.625,0.013671875,0.009765625,-0.365234375,0.6998291016,0.1607666016,0.5115966797,0.471862793,-0.2873041992,0.03830722656,0.134075293,0.01945176166,0.03277488609,-0.3573261971
853.8598859,4560.741358,1527.298876,8.121594437,1.19140625,1.5,0.1015625,20.25,4.0625,-31.625,0.01953125,0.009765625,-0.33984375,0.6970214844,0.1618652344,0.5128173828,0.4743041992,0.05746083984,-0.6416460449,0.05746083984,0.0231822365,0.03277488609,-0.3674517717
853.8932192,4565.959379,1528.860265,8.135327876,1.19140625,1.5,0.1015625,19.1875,5.4375,-30.9375,0.021484375,0.01171875,-0.33984375,0.6970214844,0.1618652344,0.5128173828,0.4743041992,0.02873041992,-0.2681505859,0.105344873,0.02051761162,0.03810413586,-0.3546615723
853.9265525,4572.559002,1531.125377,8.121594437,1.19140625,1.50390625,0.140625,19.875,4.4375,-30.5625,0.021484375,0.01171875,-0.33984375,0.6942138672,0.1632080078,0.5139160156,0.4768066406,-0.2585737793,-1.158793604,-0.8331821777,0.0186523742,0.04103522324,-0.3570597347
853.9598858,4575.690584,1531.45829,8.126172253,1.15625,1.46484375,0.1015625,19.875,4.4375,-30.5625,0.021484375,0.013671875,-0.337890625,0.6911621094,0.165222168,0.5145263672,0.4798583984,0.2873041992,0.6320692383,1.235408057,0.0138560494,0.04716386047,-0.3453353852
853.9932191,4580.898582,1533.435033,8.121594437,1.15625,1.46484375,0.1015625,21.0625,6.25,-31.3125,0.029296875,0.01953125,-0.330078125,0.6911621094,0.165222168,0.5145263672,0.4798583984,0.612915625,0.2298433594,0.478840332,0.009592649588,0.04636447301,-0.3442695352
854.0265524,4586.67149,1535.301133,8.117016617,1.15625,1.46484375,0.1015625,20.3125,6.625,-30.9375,0.029296875,0.01953125,-0.330078125,0.6880493164,0.1675415039,0.5150756836,0.4829711914,0.2681505859,0.01915361328,0.1244984863,0.007460949679,0.03996937328,-0.336542123
854.0598857,4592.00204,1536.849077,8.121594437,1.1171875,1.4296875,0.140625,20.3125,6.625,-30.9375,0.033203125,0.021484375,-0.32421875,0.6851196289,0.169921875,0.5155029297,0.4858398438,0.1819593262,0.009576806641,-0.1149216797,0.002931087374,0.05169372278,-0.3344104231
854.093219,4596.305765,1537.98239,8.126172253,1.19140625,1.39453125,0.1796875,20.3125,6.5625,-30.5625,0.033203125,0.0234375,-0.314453125,0.6851196289,0.169921875,0.5155029297,0.4858398438,-0.02873041992,-0.8810662109,-1.216254443,0.001598774931,0.04982848536,-0.3282817859
854.1265523,4601.107497,1539.545532,8.130750066,1.15625,1.43359375,0.1015625,19.25,7.625,-31.3125,0.033203125,0.0234375,-0.314453125,0.6821899414,0.1721801758,0.5159912109,0.4885864258,0.3926490723,-0.7852981445,0.9768342773,0.002131699908,0.05275957273,-0.3248177735
854.1598856,4606.927542,1541.509018,8.130750066,1.15625,1.4296875,0.1796875,19.25,7.625,-31.3125,0.03515625,0.03125,-0.3046875,0.6793212891,0.1742553711,0.5166625977,0.4911499023,-0.09576806641,-0.7852981445,-0.08619125977,0.00373047484,0.05728943504,-0.3186891363
854.1932189,4611.221968,1542.546492,8.126172253,1.15625,1.390625,0.1796875,21.0625,6.625,-29.5,0.03515625,0.033203125,-0.296875,0.6793212891,0.1742553711,0.5166625977,0.4911499023,0.6224924316,-0.2489969727,0.2298433594,0.0005329249771,0.05728943504,-0.3120275741
854.2265522,4615.363811,1543.791599,8.126172253,1.15625,1.390625,0.1796875,21.125,8.8125,-31,0.03515625,0.033203125,-0.296875,0.6765136719,0.1759033203,0.5177001953,0.493347168,0.01915361328,-0.6512228516,0.2968810059,-0.007993874656,0.05622358508,-0.3053660119
854.2598855,4619.448383,1545.036857,8.126172253,1.15625,1.39453125,0.21875,21.125,8.8125,-31,0.0390625,0.041015625,-0.2890625,0.6736450195,0.1773681641,0.5189819336,0.4953613281,0.134075293,-1.005564697,0.009576806641,-0.005062787282,0.05915467246,-0.3077641743
854.2932189,4625.030337,1547.016332,8.126172253,1.15625,1.3515625,0.21875,22.9375,7.0625,-31.25,0.0390625,0.048828125,-0.28125,0.6736450195,0.1773681641,0.5189819336,0.4953613281,0.8236053711,-0.2681505859,0.134075293,-0.01598774931,0.0580888225,-0.2973721372
854.3265522,4628.179115,1547.542856,8.126172253,1.15625,1.3515625,0.21875,21.875,8.4375,-29.1875,0.0390625,0.048828125,-0.28125,0.6708984375,0.1782226563,0.520690918,0.4970092773,0.08619125977,-0.4596867188,-0.05746083984,-0.01945176166,0.03890352333,-0.2912435
854.3598855,4633.144291,1549.39645,8.126172253,1.19140625,1.31640625,0.21875,21.875,8.4375,-29.1875,0.033203125,0.048828125,-0.2734375,0.66796875,0.1787109375,0.5227661133,0.4985961914,0.2777273926,-0.2106897461,-0.1723825195,-0.01092496203,0.04476569808,-0.2925758124
854.3932188,4638.63622,1551.169127,8.121594437,1.19140625,1.35546875,0.25390625,21.875,9.1875,-31,0.02734375,0.052734375,-0.26953125,0.66796875,0.1787109375,0.5227661133,0.4985961914,0.5171475586,-0.2489969727,0.3447650391,-0.01358958692,0.0373047484,-0.2861807127
854.4265521,4644.29876,1552.927,8.121594437,1.19140625,1.31640625,0.25390625,21.875,9.8125,-29.5625,0.02734375,0.052734375,-0.26953125,0.6649780273,0.1786499023,0.5252685547,0.4999389648,0.2011129395,-0.2777273926,0.105344873,-0.0279785613,0.04503216056,-0.2848484003
854.4598854,4648.96879,1554.173366,8.130750066,1.19140625,1.35546875,0.21875,21.875,9.8125,-29.5625,0.025390625,0.052734375,-0.265625,0.6620483398,0.1778564453,0.5281982422,0.5009765625,0.2585737793,-0.1819593262,0.2968810059,-0.02717917383,0.04156814821,-0.2811179254
854.4932187,4652.600377,1555.100645,8.126172253,1.19140625,1.35546875,0.25390625,21.5625,9.125,-30.25,0.0234375,0.056640625,-0.26171875,0.6620483398,0.1778564453,0.5281982422,0.5009765625,0.3639186523,-0.3830722656,0.5267243652,-0.02717917383,0.03650536093,-0.2859142502
854.526552,4656.559421,1556.37771,8.126172253,1.19140625,1.35546875,0.25390625,22.3125,10.625,-30.25,0.0234375,0.056640625,-0.26171875,0.6591186523,0.1766967773,0.5314331055,0.5018920898,0.3639186523,-0.07661445313,-0.2681505859,-0.01785298673,0.04076876075,-0.2728575883
854.5598853,4660.151818,1557.41672,8.126172253,1.19140625,1.35546875,0.25390625,22.3125,10.625,-30.25,0.01953125,0.056640625,-0.259765625,0.65625,0.1751098633,0.5347900391,0.5026245117,0.3447650391,0.03830722656,-0.08619125977,-0.02451454895,0.02584686139,-0.2808514629
854.5932186,4665.061985,1559.160345,8.126172253,1.23046875,1.35546875,0.25390625,23.0625,10.625,-30.25,0.017578125,0.056640625,-0.2578125,0.65625,0.1751098633,0.5347900391,0.5026245117,-0.01915361328,-0.4501099121,-0.1723825195,-0.02904441125,0.03597243595,-0.2749892882
854.6265519,4669.480689,1560.422782,8.121594437,1.19140625,1.390625,0.29296875,23.0625,10.625,-30.25,0.017578125,0.056640625,-0.2578125,0.6534423828,0.1733398438,0.5382080078,0.5032958984,0.8140285645,-0.01915361328,0.5267243652,-0.01918529918,0.04103522324,-0.2712588133
854.6598852,4674.30999,1561.974258,8.121594437,1.23046875,1.35546875,0.29296875,23.0625,10.625,-30.25,0.01171875,0.056640625,-0.25,0.6508178711,0.1716308594,0.5413818359,0.5038452148,0.3064578125,-0.2873041992,0.3639186523,-0.02824502379,0.03464012351,-0.2629984762
854.6932185,4677.409481,1562.613344,8.117016617,1.23046875,1.35546875,0.29296875,22.6875,10.625,-30.625,0.013671875,0.060546875,-0.248046875,0.6508178711,0.1716308594,0.5413818359,0.5038452148,0.8236053711,-0.105344873,0.1436520996,-0.02504747392,0.03090964867,-0.2701929634
854.7265518,4683.457121,1564.996965,8.126172253,1.19140625,1.35546875,0.33203125,23.5,11.6875,-28.875,0.013671875,0.060546875,-0.248046875,0.6481933594,0.1696777344,0.5446777344,0.5043334961,-0.02873041992,-0.4118026855,-0.2681505859,-0.02398162397,0.03170903614,-0.2606003138
854.7598851,4686.959011,1565.605447,8.121594437,1.23046875,1.390625,0.29296875,23.5,11.6875,-28.875,0.013671875,0.05859375,-0.248046875,0.645690918,0.1677856445,0.5478515625,0.5047607422,0.1915361328,-0.2968810059,0.08619125977,-0.02717917383,0.02637978637,-0.2598009263
854.7932184,4691.273857,1567.076813,8.130750066,1.23046875,1.390625,0.33203125,24.1875,12.8125,-29.625,0.009765625,0.056640625,-0.244140625,0.645690918,0.1677856445,0.5478515625,0.5047607422,0.134075293,-0.2777273926,-0.09576806641,-0.02637978637,0.02424808646,-0.2629984762
854.8265517,4695.637003,1568.421194,8.126172253,1.23046875,1.35546875,0.29296875,24.1875,11.375,-29.875,0.009765625,0.056640625,-0.244140625,0.6431274414,0.1658325195,0.5509643555,0.5053100586,0.2106897461,-0.5363011719,-0.009576806641,-0.03117611116,0.02717917383,-0.2632649387
854.859885,4699.621219,1569.573187,8.121594437,1.23046875,1.35546875,0.29296875,24.1875,11.375,-29.875,0.009765625,0.0625,-0.244140625,0.6405029297,0.1641845703,0.5539550781,0.5059814453,0.4884171387,0.07661445313,0.4213794922,-0.02877794876,0.02291577402,-0.2606003138
854.8932183,4702.966965,1570.486183,8.135327876,1.23046875,1.390625,0.29296875,24.1875,12.8125,-28.5625,0.005859375,0.05859375,-0.23828125,0.6405029297,0.1641845703,0.5539550781,0.5059814453,-0.03830722656,-0.4596867188,0.1723825195,-0.02904441125,0.02637978637,-0.256869839
854.9265516,4707.027186,1571.862063,8.126172253,1.23046875,1.390625,0.33203125,23.9375,13.5625,-29.625,0.005859375,0.05859375,-0.23828125,0.6379394531,0.1625366211,0.5567016602,0.506652832,0.105344873,-0.1915361328,0.4501099121,-0.02637978637,0.0210505366,-0.2582021514
854.9598849,4711.727268,1573.415153,8.130750066,1.23046875,1.390625,0.33203125,23.9375,13.5625,-29.625,0.009765625,0.064453125,-0.23828125,0.6357421875,0.1611328125,0.5591430664,0.5072021484,0.2777273926,-0.1532289063,0.5363011719,-0.02371516148,0.02078407411,-0.2536722891
854.9932182,4715.380809,1574.343981,8.126172253,1.23046875,1.390625,0.37109375,24.1875,12.8125,-28.875,0.0078125,0.060546875,-0.236328125,0.6357421875,0.1611328125,0.5591430664,0.5072021484,0.507570752,-0.2585737793,0.3064578125,-0.02504747392,0.02291577402,-0.2544716766
855.0265515,4718.667746,1575.288514,8.126172253,1.23046875,1.390625,0.33203125,25.0625,15,-29.625,0.0078125,0.060546875,-0.236328125,0.633605957,0.1597900391,0.5614624023,0.5076904297,0.3543418457,-0.0478840332,0.3351882324,-0.02877794876,0.02025114913,-0.255803989
855.0598848,4722.246091,1576.441349,8.126172253,1.19140625,1.390625,0.37109375,25.0625,15,-29.625,0.009765625,0.060546875,-0.232421875,0.6315917969,0.1586303711,0.5635986328,0.5082397461,0.1723825195,-0.1532289063,0.2681505859,-0.03384073605,0.0231822365,-0.2488759643
855.0932181,4726.334679,1577.786861,8.130750066,1.23046875,1.4296875,0.37109375,24.5625,12.8125,-28.5,0.0078125,0.05859375,-0.23046875,0.6315917969,0.1586303711,0.5635986328,0.5082397461,-0.06703764648,-0.4213794922,0.1149216797,-0.02717917383,0.02504747392,-0.245411952
855.1265514,4729.558299,1578.619778,8.130750066,1.23046875,1.390625,0.41015625,25.4375,15,-28.1875,0.0078125,0.05859375,-0.23046875,0.6296386719,0.1575317383,0.565612793,0.5087890625,0.105344873,-0.1149216797,0.239420166,-0.02637978637,0.02264931153,-0.2462113394
855.1598847,4734.175207,1580.285816,8.130750066,1.19140625,1.4296875,0.37109375,25.4375,15,-28.1875,0.001953125,0.060546875,-0.232421875,0.6275634766,0.1567382813,0.5673828125,0.5095825195,0.05746083984,-0.2106897461,0.08619125977,-0.02637978637,0.01705359927,-0.2526064391
855.193218,4737.999866,1581.311456,8.130750066,1.23046875,1.4296875,0.37109375,25.375,14.25,-29.625,0.005859375,0.064453125,-0.2265625,0.6275634766,0.1567382813,0.5673828125,0.5095825195,-0.03830722656,-0.02873041992,0.1819593262,-0.03357427356,0.0231822365,-0.2406156272
855.2265513,4741.157019,1582.160432,8.135327876,1.19140625,1.390625,0.37109375,25.875,16.75,-27.875,0.005859375,0.064453125,-0.2265625,0.6255493164,0.1560668945,0.569152832,0.5103149414,0.0478840332,-0.134075293,0.2968810059,-0.03011026121,0.02824502379,-0.2400827022
855.2598846,4745.519202,1583.714961,8.126172253,1.19140625,1.4296875,0.41015625,25.875,16.75,-27.875,0.005859375,0.06640625,-0.224609375,0.6235351563,0.1556396484,0.5706787109,0.5112304688,0.2106897461,-0.0478840332,0.3447650391,-0.02504747392,0.01918529918,-0.244346102
855.2932179,4748.651071,1584.452095,8.130750066,1.19140625,1.4609375,0.41015625,25.875,16.75,-27.875,0.01171875,0.06640625,-0.224609375,0.6235351563,0.1556396484,0.5706787109,0.5112304688,0.1628057129,0.06703764648,-0.1723825195,-0.02904441125,0.02637978637,-0.2440796395
855.3265512,4752.175699,1585.606054,8.126172253,1.19140625,1.4296875,0.37109375,25.0625,15.6875,-28.25,0.01171875,0.06640625,-0.224609375,0.6216430664,0.1553955078,0.5720214844,0.5120239258,0.1244984863,-0.3064578125,-0.2011129395,-0.03117611116,0.02504747392,-0.2336876025
855.3598845,4756.448312,1587.048928,8.130750066,1.15625,1.43359375,0.37109375,25.0625,15.6875,-28.25,0.013671875,0.06640625,-0.224609375,0.6198120117,0.1553344727,0.5732421875,0.5129394531,-0.4501099121,-0.478840332,0.2681505859,-0.03410719853,0.02851148627,-0.2360857649
855.3932178,4759.116752,1587.577915,8.126172253,1.15625,1.43359375,0.37109375,25.0625,16,-27.1875,0.01171875,0.068359375,-0.216796875,0.6198120117,0.1553344727,0.5732421875,0.5129394531,-0.0478840332,-0.239420166,0.4405331055,-0.03224196111,0.02877794876,-0.2350199149
855.4265511,4763.09705,1589.036957,8.126172253,1.15625,1.43359375,0.41015625,26.25,17.125,-27.5,0.01171875,0.068359375,-0.216796875,0.6181030273,0.1555786133,0.5742797852,0.5137939453,-0.06703764648,-0.2968810059,0.3351882324,-0.03890352333,0.03597243595,-0.2390168522
855.4598844,4766.484548,1589.967039,8.130750066,1.15625,1.46484375,0.41015625,26.25,17.125,-27.5,0.009765625,0.0703125,-0.212890625,0.6163330078,0.1561889648,0.5751342773,0.5147094727,0.2681505859,-0.05746083984,-0.03830722656,-0.04369984812,0.03011026121,-0.2272925027
855.4932177,4768.385873,1590.287729,8.126172253,1.15625,1.4609375,0.44921875,26.5625,17.5625,-28.5625,0.017578125,0.072265625,-0.20703125,0.6163330078,0.1561889648,0.5751342773,0.5147094727,-0.1244984863,-0.373495459,0.4118026855,-0.0373047484,0.0325084236,-0.2291577402
855.526551,4772.706048,1592.051913,8.135327876,1.15625,1.4296875,0.44921875,26.25,17.1875,-27.875,0.017578125,0.072265625,-0.20703125,0.6148071289,0.1568603516,0.5758666992,0.5155029297,0.2777273926,-0.3543418457,0.3830722656,-0.0466309355,0.03064318618,-0.2262266528
855.5598843,4776.059587,1592.902012,8.126172253,1.15625,1.46484375,0.41015625,26.25,17.1875,-27.875,0.017578125,0.080078125,-0.205078125,0.6130981445,0.1578369141,0.5766601563,0.516418457,-0.009576806641,-0.1436520996,0.239420166,-0.04103522324,0.03703828591,-0.2158346157
855.5932176,4780.073145,1594.249515,8.130750066,1.15625,1.4609375,0.44921875,27,18.25,-28.25,0.017578125,0.08203125,-0.201171875,0.6130981445,0.1578369141,0.5766601563,0.516418457,0.2681505859,-0.1149216797,0.2873041992,-0.05515773513,0.0418346107,-0.2161010782
855.6265509,4781.784164,1594.361827,8.130750066,1.15625,1.4609375,0.44921875,26.625,18.5625,-27.1875,0.017578125,0.08203125,-0.201171875,0.6112670898,0.1588745117,0.5774536133,0.5173339844,-0.03830722656,-0.3543418457,0.03830722656,-0.05009494785,0.03277488609,-0.2078407411
855.6598842,4786.466108,1596.335281,8.135327876,1.15625,1.4296875,0.44921875,26.625,18.5625,-27.1875,0.0234375,0.083984375,-0.197265625,0.6094360352,0.1600341797,0.5783081055,0.5182495117,0.105344873,-0.1723825195,0.1819593262,-0.05435834766,0.03597243595,-0.2150352283
855.6932175,4789.262876,1596.84873,8.135327876,1.15625,1.4609375,0.44921875,27,17.9375,-27.1875,0.01953125,0.0859375,-0.193359375,0.6094360352,0.1600341797,0.5783081055,0.5182495117,-0.2489969727,-0.3447650391,0.2202665527,-0.04929556038,0.04343338563,-0.2078407411
855.7265508,4792.469043,1597.907956,8.135327876,1.15625,1.4296875,0.44921875,27,17.9375,-27.5,0.01953125,0.0859375,-0.193359375,0.6075439453,0.1611328125,0.5792236328,0.5190429688,0.07661445313,-0.2011129395,0.06703764648,-0.05249311024,0.04210107319,-0.2043767287
855.7598841,4794.902449,1598.517714,8.130750066,1.1171875,1.4296875,0.484375,27,17.9375,-27.5,0.0234375,0.09375,-0.1875,0.60546875,0.1622924805,0.5803833008,0.5198364258,0.1436520996,-0.03830722656,0.2298433594,-0.06128637237,0.04210107319,-0.1931853042
855.7932174,4799.033631,1600.090728,8.126172253,1.15625,1.4609375,0.484375,26.625,19.3125,-27.9375,0.02734375,0.095703125,-0.18359375,0.60546875,0.1622924805,0.5803833008,0.5198364258,0.1628057129,-0.2681505859,0.2106897461,-0.06475038472,0.04583154803,-0.2011791789
855.8265507,4801.854759,1600.71677,8.126172253,1.15625,1.4609375,0.484375,27.4375,19.6875,-26.875,0.02734375,0.095703125,-0.18359375,0.6035766602,0.1633300781,0.5815429688,0.5204467773,0.1915361328,-0.373495459,0.2681505859,-0.06501684721,0.05089433531,-0.1942511542
855.859884,4804.408792,1601.455312,8.130750066,1.15625,1.4296875,0.484375,27.0625,20.375,-26.5,0.033203125,0.099609375,-0.173828125,0.6015625,0.1643676758,0.5829467773,0.5208740234,0.2106897461,-0.1149216797,0.2202665527,-0.07034609698,0.04023583577,-0.1833261921
855.8932173,4806.828037,1602.177682,8.126172253,1.15625,1.4296875,0.44921875,27.0625,20.375,-26.5,0.02734375,0.1015625,-0.169921875,0.6015625,0.1643676758,0.5829467773,0.5208740234,0.03830722656,-0.3160346191,0.2681505859,-0.07460949679,0.04449923559,-0.1809280297
855.9265506,4810.724274,1603.638803,8.130750066,1.15625,1.4296875,0.44921875,27.4375,20.375,-26.875,0.02734375,0.1015625,-0.169921875,0.5994873047,0.1651611328,0.5844726563,0.5212402344,0.01915361328,-0.1723825195,0.09576806641,-0.07993874656,0.04743032296,-0.1718683051
855.9598839,4812.99263,1604.04003,8.130750066,1.15625,1.4296875,0.44921875,27.4375,20.375,-26.875,0.03125,0.109375,-0.166015625,0.5973510742,0.166015625,0.5861816406,0.5215454102,0.2298433594,-0.3064578125,0.3351882324,-0.07594180924,0.05569066011,-0.1763981674
